Wavelength (nm) 	 Efficiency Div Wav 1 (%) 	 Efficiency Div Wav 2 (%) 	 Efficiency Div Wav total (%) 	 Jsc Div Wav 1 (A m^-2) 	 Jsc Div Wav 2 (A m^-2) 	 Jsc Div Wav total (A m^-2) 	 EQE Curve 1 (%) 	 EQE Curve 2 (%) 	Jsc 1 correction factor: 0.13134985171721028	Jsc 2 correction factor: 0.12747424180101746
400	0.000	7.310	7.310	0.000	254.069	254.069	11.562	14.124
401	0.002	7.308	7.310	0.041	254.020	254.061	12.501	15.055
402	0.005	7.307	7.311	0.087	253.966	254.052	12.457	15.145
403	0.007	7.305	7.312	0.135	253.908	254.044	12.445	14.847
404	0.010	7.303	7.313	0.183	253.853	254.036	12.315	14.425
405	0.013	7.302	7.314	0.230	253.800	254.030	12.395	14.494
406	0.015	7.300	7.316	0.277	253.746	254.024	12.285	14.630
407	0.018	7.299	7.317	0.323	253.694	254.017	12.613	15.044
408	0.020	7.297	7.318	0.369	253.641	254.010	12.719	15.178
409	0.023	7.296	7.319	0.418	253.585	254.002	12.726	15.343
410	0.026	7.294	7.320	0.470	253.523	253.994	12.815	15.515
411	0.028	7.292	7.321	0.515	253.470	253.985	12.862	15.474
412	0.031	7.291	7.322	0.566	253.410	253.976	12.899	15.576
413	0.034	7.289	7.323	0.620	253.346	253.966	12.759	15.643
414	0.037	7.287	7.324	0.673	253.285	253.957	12.997	15.736
415	0.040	7.285	7.325	0.725	253.224	253.949	12.881	15.553
416	0.043	7.283	7.326	0.779	253.160	253.939	13.102	15.812
417	0.046	7.281	7.328	0.835	253.094	253.929	13.272	16.477
418	0.049	7.280	7.329	0.892	253.026	253.918	13.589	16.057
419	0.052	7.278	7.330	0.947	252.962	253.909	13.613	16.111
420	0.055	7.276	7.331	1.005	252.896	253.901	13.375	15.788
421	0.058	7.274	7.332	1.057	252.836	253.894	13.366	15.699
422	0.062	7.272	7.334	1.118	252.767	253.885	13.586	15.702
423	0.065	7.270	7.335	1.178	252.700	253.878	13.738	16.068
424	0.068	7.268	7.336	1.237	252.632	253.870	13.738	16.108
425	0.072	7.266	7.338	1.296	252.565	253.861	13.556	15.623
426	0.075	7.264	7.339	1.357	252.497	253.854	13.906	15.672
427	0.078	7.262	7.341	1.417	252.431	253.848	14.082	16.151
428	0.081	7.261	7.342	1.476	252.365	253.841	14.032	16.011
429	0.085	7.259	7.343	1.537	252.298	253.835	13.719	15.799
430	0.088	7.257	7.345	1.592	252.237	253.829	13.922	15.785
431	0.090	7.255	7.346	1.637	252.189	253.825	14.528	16.189
432	0.093	7.254	7.347	1.679	252.143	253.821	14.560	16.301
433	0.097	7.252	7.348	1.750	252.066	253.816	14.586	16.388
434	0.100	7.250	7.350	1.815	251.994	253.809	14.557	15.962
435	0.104	7.248	7.352	1.877	251.929	253.806	14.692	16.546
436	0.107	7.246	7.353	1.945	251.853	253.799	14.693	16.434
437	0.111	7.243	7.355	2.020	251.772	253.792	14.521	16.161
438	0.116	7.241	7.357	2.096	251.690	253.787	15.037	16.410
439	0.120	7.239	7.359	2.166	251.616	253.782	15.441	17.112
440	0.123	7.237	7.360	2.234	251.542	253.777	15.297	17.162
441	0.128	7.234	7.362	2.313	251.457	253.770	15.328	16.983
442	0.132	7.232	7.364	2.391	251.373	253.763	15.729	17.170
443	0.137	7.229	7.366	2.476	251.282	253.758	16.234	17.775
444	0.142	7.227	7.368	2.565	251.187	253.752	16.095	17.663
445	0.146	7.224	7.370	2.652	251.094	253.746	16.159	17.732
446	0.151	7.221	7.373	2.744	250.997	253.741	16.555	18.399
447	0.156	7.219	7.375	2.828	250.906	253.734	16.584	18.322
448	0.161	7.216	7.377	2.925	250.803	253.728	16.802	18.940
449	0.167	7.212	7.379	3.024	250.695	253.718	17.210	18.766
450	0.172	7.209	7.382	3.125	250.588	253.712	17.540	19.271
451	0.178	7.206	7.384	3.233	250.473	253.705	17.124	18.446
452	0.184	7.203	7.387	3.342	250.358	253.700	17.084	18.078
453	0.190	7.200	7.390	3.447	250.251	253.698	17.706	18.444
454	0.196	7.197	7.393	3.548	250.149	253.697	18.258	19.112
455	0.202	7.194	7.395	3.659	250.036	253.695	18.840	20.042
456	0.208	7.190	7.398	3.775	249.917	253.692	19.334	20.301
457	0.215	7.187	7.402	3.897	249.792	253.689	19.504	20.463
458	0.222	7.183	7.405	4.022	249.665	253.687	19.224	20.584
459	0.229	7.179	7.408	4.143	249.540	253.683	19.260	20.445
460	0.235	7.176	7.411	4.264	249.415	253.678	19.688	20.682
461	0.242	7.172	7.414	4.386	249.290	253.676	20.328	21.425
462	0.249	7.168	7.418	4.518	249.155	253.673	20.332	21.399
463	0.257	7.164	7.421	4.652	249.018	253.671	20.584	21.380
464	0.264	7.160	7.425	4.789	248.881	253.670	20.753	21.260
465	0.272	7.156	7.428	4.923	248.748	253.671	20.422	21.364
466	0.279	7.153	7.432	5.053	248.617	253.670	21.152	21.183
467	0.286	7.149	7.435	5.191	248.483	253.674	21.353	21.459
468	0.294	7.145	7.439	5.324	248.353	253.677	21.370	21.711
469	0.301	7.141	7.443	5.463	248.215	253.678	21.790	21.895
470	0.309	7.137	7.447	5.606	248.076	253.682	22.688	22.971
471	0.317	7.133	7.450	5.749	247.935	253.684	22.479	22.531
472	0.325	7.129	7.454	5.895	247.793	253.688	21.750	21.031
473	0.334	7.125	7.458	6.043	247.653	253.697	23.342	22.875
474	0.342	7.121	7.463	6.197	247.508	253.705	23.878	23.900
475	0.351	7.116	7.467	6.356	247.352	253.708	23.233	22.638
476	0.360	7.112	7.472	6.518	247.199	253.717	23.282	22.541
477	0.368	7.108	7.476	6.674	247.053	253.727	24.364	23.739
478	0.377	7.103	7.481	6.839	246.897	253.737	24.203	23.781
479	0.387	7.099	7.485	7.009	246.735	253.744	24.661	23.696
480	0.396	7.094	7.490	7.180	246.577	253.757	24.003	23.180
481	0.406	7.089	7.495	7.348	246.419	253.767	23.919	22.580
482	0.415	7.085	7.500	7.516	246.265	253.781	24.744	23.328
483	0.425	7.080	7.505	7.692	246.104	253.796	25.162	23.931
484	0.434	7.076	7.510	7.868	245.941	253.809	25.491	24.346
485	0.444	7.071	7.515	8.044	245.778	253.822	26.253	24.505
486	0.454	7.066	7.520	8.226	245.614	253.840	26.191	24.638
487	0.462	7.062	7.525	8.374	245.480	253.853	26.770	24.976
488	0.471	7.058	7.529	8.542	245.327	253.868	28.270	26.674
489	0.482	7.053	7.535	8.736	245.148	253.884	29.497	27.885
490	0.493	7.048	7.541	8.927	244.974	253.900	29.705	28.083
491	0.505	7.042	7.547	9.142	244.776	253.918	29.855	28.322
492	0.516	7.037	7.553	9.349	244.585	253.934	30.286	28.380
493	0.527	7.031	7.559	9.552	244.401	253.953	30.998	29.602
494	0.539	7.026	7.565	9.774	244.196	253.970	30.874	29.844
495	0.551	7.020	7.571	9.990	243.993	253.984	31.688	29.850
496	0.564	7.013	7.578	10.227	243.778	254.005	31.956	30.152
497	0.577	7.007	7.584	10.454	243.570	254.024	31.307	28.771
498	0.589	7.002	7.591	10.681	243.367	254.049	31.058	29.297
499	0.602	6.996	7.597	10.901	243.166	254.067	32.715	30.999
500	0.614	6.990	7.604	11.132	242.953	254.085	33.696	32.230
501	0.628	6.983	7.611	11.371	242.731	254.102	32.989	31.734
502	0.640	6.977	7.617	11.598	242.518	254.117	33.469	32.613
503	0.653	6.971	7.624	11.829	242.299	254.129	34.851	33.950
504	0.667	6.964	7.631	12.082	242.061	254.142	35.075	34.705
505	0.680	6.958	7.637	12.319	241.833	254.152	32.703	31.746
506	0.693	6.951	7.644	12.557	241.608	254.165	33.796	33.066
507	0.707	6.944	7.651	12.814	241.364	254.178	34.404	34.531
508	0.721	6.937	7.658	13.064	241.120	254.184	32.768	32.139
509	0.734	6.931	7.664	13.297	240.898	254.195	32.240	30.570
510	0.747	6.924	7.671	13.538	240.676	254.215	32.009	31.070
511	0.760	6.918	7.678	13.772	240.456	254.228	31.381	30.260
512	0.773	6.912	7.685	14.006	240.237	254.243	33.680	32.365
513	0.787	6.905	7.692	14.263	239.997	254.260	34.274	33.566
514	0.801	6.898	7.699	14.512	239.761	254.273	33.211	32.551
515	0.814	6.891	7.705	14.747	239.538	254.285	35.416	34.451
516	0.828	6.884	7.713	15.005	239.293	254.299	35.064	34.793
517	0.842	6.877	7.720	15.264	239.045	254.309	35.053	35.271
518	0.854	6.871	7.725	15.476	238.838	254.314	36.696	38.280
519	0.868	6.864	7.732	15.729	238.582	254.311	35.892	36.939
520	0.881	6.857	7.738	15.970	238.341	254.311	36.079	37.002
521	0.896	6.850	7.745	16.234	238.079	254.312	35.889	37.522
522	0.911	6.842	7.752	16.501	237.807	254.309	35.366	37.553
523	0.926	6.834	7.759	16.771	237.529	254.300	37.256	38.657
524	0.940	6.826	7.766	17.039	237.259	254.298	36.779	38.141
525	0.956	6.818	7.774	17.325	236.971	254.296	35.583	36.664
526	0.971	6.810	7.781	17.600	236.695	254.295	36.461	37.880
527	0.986	6.802	7.788	17.874	236.419	254.293	37.026	39.017
528	1.000	6.795	7.794	18.118	236.169	254.287	37.276	40.270
529	1.015	6.786	7.802	18.399	235.875	254.274	36.874	39.745
530	1.032	6.777	7.809	18.691	235.570	254.261	36.808	40.614
531	1.047	6.769	7.816	18.972	235.269	254.241	36.747	40.737
532	1.063	6.760	7.823	19.268	234.952	254.219	36.789	40.866
533	1.080	6.750	7.830	19.561	234.637	254.197	36.752	41.535
534	1.094	6.742	7.836	19.822	234.350	254.172	37.585	41.383
535	1.110	6.733	7.843	20.110	234.043	254.152	38.398	42.371
536	1.126	6.724	7.850	20.408	233.724	254.132	36.565	41.122
537	1.143	6.715	7.858	20.705	233.400	254.105	37.391	42.528
538	1.158	6.706	7.864	20.986	233.090	254.076	38.029	44.236
539	1.175	6.696	7.871	21.287	232.750	254.037	37.922	45.109
540	1.191	6.686	7.877	21.581	232.410	253.991	37.943	45.826
541	1.207	6.677	7.884	21.864	232.077	253.942	38.373	47.303
542	1.222	6.667	7.889	22.142	231.746	253.887	40.105	50.286
543	1.239	6.656	7.896	22.457	231.362	253.819	40.281	49.921
544	1.257	6.645	7.902	22.769	230.986	253.755	39.310	49.630
545	1.274	6.634	7.908	23.086	230.597	253.683	38.712	47.868
546	1.291	6.624	7.915	23.392	230.230	253.622	38.726	48.078
547	1.308	6.613	7.921	23.694	229.865	253.560	38.443	49.392
548	1.324	6.602	7.927	23.999	229.486	253.484	39.178	50.047
549	1.341	6.591	7.933	24.301	229.111	253.412	39.591	51.606
550	1.359	6.580	7.939	24.619	228.709	253.328	39.898	52.627
551	1.376	6.568	7.944	24.935	228.305	253.241	40.774	53.051
552	1.394	6.557	7.951	25.259	227.896	253.154	39.976	52.534
553	1.412	6.545	7.957	25.583	227.482	253.065	40.472	53.692
554	1.430	6.533	7.962	25.904	227.070	252.973	39.088	51.448
555	1.447	6.521	7.968	26.220	226.666	252.886	38.617	51.588
556	1.464	6.509	7.974	26.535	226.257	252.792	37.967	51.555
557	1.481	6.498	7.979	26.841	225.852	252.694	37.957	52.281
558	1.498	6.486	7.984	27.140	225.455	252.594	39.492	54.591
559	1.515	6.474	7.989	27.457	225.029	252.486	39.284	54.313
560	1.532	6.462	7.994	27.757	224.626	252.383	39.870	55.581
561	1.549	6.450	7.999	28.067	224.207	252.274	40.392	56.515
562	1.567	6.437	8.005	28.400	223.754	252.155	38.902	54.117
563	1.584	6.426	8.010	28.707	223.341	252.048	38.447	54.065
564	1.602	6.413	8.015	29.020	222.913	251.933	39.384	56.744
565	1.619	6.400	8.020	29.338	222.469	251.808	40.117	57.624
566	1.637	6.387	8.025	29.665	222.014	251.680	41.683	61.723
567	1.655	6.374	8.029	29.986	221.554	251.540	42.510	62.429
568	1.674	6.360	8.034	30.335	221.056	251.391	41.817	60.585
569	1.693	6.346	8.039	30.678	220.575	251.253	41.686	60.450
570	1.711	6.333	8.044	31.009	220.108	251.118	40.598	59.436
571	1.729	6.319	8.048	31.332	219.648	250.981	41.408	61.335
572	1.747	6.306	8.053	31.653	219.187	250.840	41.315	61.261
573	1.765	6.292	8.058	31.990	218.701	250.691	42.736	63.776
574	1.785	6.277	8.062	32.344	218.190	250.534	44.429	66.602
575	1.805	6.262	8.067	32.709	217.660	250.368	43.887	64.475
576	1.825	6.248	8.072	33.062	217.156	250.218	43.371	63.252
577	1.844	6.233	8.077	33.409	216.665	250.074	42.618	62.288
578	1.863	6.219	8.082	33.761	216.167	249.928	40.419	59.587
579	1.881	6.206	8.087	34.083	215.707	249.789	40.714	60.601
580	1.899	6.192	8.091	34.412	215.230	249.642	41.322	61.627
581	1.918	6.178	8.096	34.755	214.734	249.489	42.595	63.861
582	1.938	6.163	8.101	35.109	214.219	249.328	44.163	66.548
583	1.958	6.147	8.106	35.482	213.674	249.155	44.027	64.873
584	1.979	6.132	8.111	35.860	213.133	248.993	44.041	64.427
585	2.000	6.116	8.116	36.235	212.599	248.834	42.919	62.498
586	2.020	6.102	8.122	36.599	212.084	248.683	42.310	62.398
587	2.039	6.087	8.126	36.951	211.580	248.532	42.602	63.442
588	2.059	6.072	8.131	37.314	211.057	248.370	43.378	64.707
589	2.079	6.057	8.136	37.676	210.533	248.209	44.198	65.738
590	2.097	6.044	8.141	37.997	210.071	248.068	45.345	67.348
591	2.116	6.029	8.145	38.345	209.569	247.914	42.999	62.479
592	2.136	6.015	8.151	38.701	209.068	247.769	43.413	63.422
593	2.155	6.001	8.156	39.052	208.570	247.621	43.776	64.304
594	2.175	5.986	8.161	39.412	208.056	247.467	43.279	63.674
595	2.195	5.971	8.166	39.766	207.550	247.316	42.880	63.243
596	2.214	5.957	8.171	40.114	207.051	247.166	42.544	62.510
597	2.234	5.942	8.176	40.472	206.541	247.013	42.563	62.285
598	2.253	5.928	8.181	40.830	206.033	246.863	42.851	63.028
599	2.273	5.913	8.186	41.186	205.525	246.712	43.323	63.920
600	2.293	5.898	8.191	41.546	205.010	246.556	43.792	64.854
601	2.313	5.883	8.196	41.916	204.479	246.395	43.963	65.314
602	2.334	5.868	8.201	42.283	203.950	246.233	43.675	65.014
603	2.353	5.853	8.206	42.643	203.431	246.074	42.971	64.343
604	2.373	5.838	8.211	43.005	202.905	245.910	43.480	65.011
605	2.394	5.822	8.216	43.378	202.364	245.742	43.586	64.845
606	2.415	5.806	8.221	43.753	201.824	245.576	43.670	65.306
607	2.435	5.791	8.226	44.128	201.278	245.406	42.818	63.625
608	2.456	5.775	8.231	44.497	200.746	245.244	42.204	62.547
609	2.476	5.760	8.236	44.861	200.223	245.084	41.416	61.387
610	2.495	5.746	8.241	45.217	199.711	244.929	40.801	60.128
611	2.515	5.731	8.246	45.565	199.214	244.779	41.190	61.151
612	2.534	5.717	8.251	45.917	198.707	244.624	42.505	63.724
613	2.554	5.701	8.256	46.286	198.170	244.457	44.049	66.427
614	2.575	5.685	8.261	46.663	197.618	244.282	45.110	68.504
615	2.596	5.670	8.266	47.039	197.065	244.104	44.421	67.723
616	2.617	5.653	8.270	47.424	196.495	243.919	43.096	65.781
617	2.637	5.638	8.275	47.786	195.957	243.744	41.737	62.908
618	2.656	5.623	8.279	48.133	195.450	243.583	40.376	60.572
619	2.676	5.608	8.284	48.483	194.943	243.425	39.638	59.152
620	2.695	5.594	8.289	48.828	194.442	243.270	39.403	58.539
621	2.714	5.580	8.294	49.172	193.946	243.118	40.646	60.873
622	2.734	5.565	8.298	49.531	193.424	242.955	43.058	65.201
623	2.754	5.549	8.303	49.897	192.886	242.784	44.563	68.041
624	2.775	5.533	8.308	50.274	192.328	242.602	44.691	68.770
625	2.795	5.517	8.312	50.652	191.763	242.416	43.614	67.135
626	2.816	5.501	8.317	51.019	191.215	242.234	42.045	64.616
627	2.835	5.486	8.321	51.374	190.687	242.061	41.477	63.501
628	2.855	5.471	8.326	51.732	190.156	241.888	41.149	62.593
629	2.874	5.456	8.330	52.068	189.659	241.727	41.541	63.255
630	2.893	5.441	8.335	52.423	189.135	241.558	41.868	63.758
631	2.913	5.426	8.339	52.775	188.615	241.390	41.957	63.798
632	2.932	5.411	8.344	53.134	188.084	241.218	42.608	64.931
633	2.952	5.396	8.348	53.484	187.566	241.050	42.482	65.126
634	2.972	5.380	8.353	53.857	187.010	240.867	42.532	65.362
635	2.993	5.364	8.357	54.226	186.460	240.687	42.639	65.875
636	3.013	5.348	8.362	54.602	185.897	240.499	42.563	65.940
637	3.034	5.332	8.366	54.969	185.345	240.314	42.330	65.636
638	3.054	5.316	8.370	55.346	184.778	240.123	41.927	65.367
639	3.075	5.300	8.375	55.723	184.208	239.930	41.269	64.610
640	3.096	5.284	8.379	56.092	183.648	239.740	41.143	64.344
641	3.116	5.268	8.383	56.454	183.098	239.552	40.961	64.093
642	3.136	5.252	8.387	56.815	182.548	239.364	41.515	65.224
643	3.156	5.236	8.392	57.182	181.989	239.170	41.459	65.584
644	3.176	5.219	8.396	57.552	181.420	238.972	41.341	66.072
645	3.197	5.203	8.400	57.921	180.846	238.768	40.865	65.770
646	3.217	5.186	8.403	58.290	180.270	238.561	40.084	64.369
647	3.236	5.171	8.407	58.641	179.723	238.365	39.347	63.857
648	3.255	5.155	8.410	58.984	179.184	238.168	38.752	63.085
649	3.274	5.140	8.414	59.319	178.655	237.974	38.676	63.289
650	3.292	5.125	8.417	59.643	178.140	237.783	39.053	64.694
651	3.310	5.110	8.420	59.974	177.609	237.583	39.177	66.066
652	3.329	5.093	8.423	60.328	177.030	237.358	39.034	66.565
653	3.348	5.077	8.425	60.668	176.468	237.136	38.223	65.680
654	3.367	5.060	8.428	61.012	175.894	236.906	37.180	64.915
655	3.385	5.044	8.430	61.342	175.336	236.677	36.312	63.619
656	3.402	5.029	8.432	61.649	174.813	236.462	35.552	62.704
657	3.417	5.016	8.433	61.913	174.361	236.274	35.378	63.896
658	3.432	5.002	8.435	62.189	173.877	236.066	35.040	64.578
659	3.449	4.987	8.436	62.494	173.332	235.825	34.592	65.165
660	3.466	4.971	8.436	62.798	172.776	235.574	34.192	66.348
661	3.482	4.954	8.437	63.102	172.205	235.307	33.079	65.069
662	3.499	4.938	8.437	63.393	171.648	235.041	31.793	64.067
663	3.514	4.923	8.437	63.672	171.102	234.774	30.710	63.474
664	3.529	4.907	8.436	63.941	170.562	234.503	29.847	62.490
665	3.543	4.892	8.435	64.205	170.024	234.229	28.996	62.594
666	3.558	4.876	8.434	64.469	169.472	233.941	28.526	63.947
667	3.572	4.859	8.432	64.729	168.907	233.636	27.889	65.210
668	3.586	4.843	8.429	64.981	168.335	233.316	27.003	65.594
669	3.600	4.826	8.426	65.226	167.759	232.984	25.823	65.690
670	3.613	4.809	8.422	65.463	167.171	232.634	24.583	65.448
671	3.625	4.793	8.418	65.688	166.590	232.278	23.095	63.313
672	3.637	4.777	8.413	65.898	166.030	231.928	21.878	63.018
673	3.648	4.761	8.409	66.097	165.477	231.573	20.958	63.581
674	3.658	4.745	8.403	66.288	164.913	231.202	19.919	63.084
675	3.668	4.729	8.397	66.468	164.359	230.827	19.025	64.440
676	3.678	4.712	8.390	66.639	163.795	230.435	17.978	64.899
677	3.687	4.696	8.383	66.803	163.218	230.021	16.712	63.888
678	3.695	4.680	8.375	66.956	162.653	229.609	15.590	63.616
679	3.703	4.663	8.366	67.097	162.090	229.187	14.505	62.928
680	3.710	4.647	8.358	67.229	161.537	228.765	13.519	62.207
681	3.717	4.632	8.349	67.352	160.985	228.337	12.667	63.301
682	3.723	4.615	8.339	67.468	160.426	227.894	11.790	63.885
683	3.729	4.599	8.328	67.576	159.858	227.433	10.921	63.763
684	3.735	4.583	8.318	67.674	159.298	226.972	10.036	63.738
685	3.740	4.567	8.307	67.765	158.742	226.507	9.201	63.474
686	3.744	4.551	8.295	67.849	158.184	226.033	8.414	62.022
687	3.749	4.536	8.284	67.924	157.650	225.574	7.664	61.020
688	3.751	4.525	8.276	67.972	157.269	225.241	7.106	62.643
689	3.754	4.512	8.266	68.025	156.816	224.841	6.530	61.865
690	3.757	4.499	8.255	68.073	156.365	224.438	5.992	62.630
691	3.759	4.485	8.244	68.121	155.890	224.010	5.501	63.960
692	3.762	4.470	8.232	68.165	155.381	223.546	5.038	63.933
693	3.764	4.455	8.220	68.207	154.858	223.066	4.608	63.420
694	3.766	4.440	8.207	68.245	154.343	222.589	4.198	63.375
695	3.768	4.426	8.194	68.281	153.832	222.113	3.846	63.345
696	3.770	4.411	8.181	68.314	153.312	221.626	3.511	63.742
697	3.772	4.396	8.168	68.344	152.788	221.132	3.188	64.378
698	3.773	4.380	8.153	68.373	152.226	220.599	2.895	64.904
699	3.775	4.363	8.138	68.399	151.668	220.067	2.616	64.160
700	3.776	4.348	8.124	68.421	151.128	219.550	2.368	63.574
701	3.777	4.333	8.110	68.442	150.598	219.041	2.167	63.858
702	3.778	4.317	8.096	68.461	150.069	218.530	1.989	63.619
703	3.779	4.302	8.081	68.478	149.541	218.019	1.812	64.363
704	3.780	4.287	8.067	68.494	149.002	217.496	1.654	65.654
705	3.781	4.270	8.051	68.508	148.436	216.944	1.501	65.156
706	3.782	4.254	8.036	68.521	147.869	216.390	1.346	63.778
707	3.782	4.238	8.021	68.533	147.318	215.851	1.220	63.837
708	3.783	4.222	8.005	68.544	146.766	215.310	1.120	63.913
709	3.783	4.207	7.990	68.554	146.217	214.771	1.033	62.753
710	3.784	4.191	7.975	68.563	145.672	214.236	0.936	62.632
711	3.784	4.175	7.960	68.571	145.124	213.696	0.859	65.658
712	3.785	4.159	7.944	68.579	144.553	213.132	0.788	66.212
713	3.785	4.142	7.927	68.586	143.977	212.563	0.717	65.012
714	3.786	4.126	7.912	68.592	143.420	212.012	0.648	64.278
715	3.786	4.110	7.896	68.597	142.863	211.460	0.590	63.969
716	3.786	4.095	7.881	68.603	142.328	210.930	0.546	65.364
717	3.786	4.079	7.865	68.608	141.774	210.382	0.507	66.235
718	3.787	4.065	7.851	68.612	141.281	209.893	0.465	67.173
719	3.787	4.051	7.838	68.616	140.816	209.432	0.426	67.531
720	3.787	4.039	7.826	68.618	140.395	209.014	0.388	66.496
721	3.787	4.026	7.814	68.621	139.953	208.574	0.351	66.065
722	3.787	4.012	7.800	68.624	139.468	208.092	0.323	65.738
723	3.787	3.997	7.784	68.626	138.916	207.543	0.295	65.187
724	3.788	3.982	7.770	68.629	138.413	207.042	0.274	67.052
725	3.788	3.968	7.756	68.632	137.932	206.564	0.253	68.282
726	3.788	3.954	7.742	68.633	137.450	206.083	0.233	68.426
727	3.788	3.940	7.728	68.634	136.947	205.581	0.214	68.361
728	3.788	3.925	7.713	68.636	136.441	205.076	0.193	67.030
729	3.788	3.912	7.700	68.637	135.964	204.601	0.177	66.294
730	3.788	3.898	7.686	68.638	135.490	204.128	0.163	66.256
731	3.788	3.883	7.671	68.639	134.977	203.617	0.151	67.089
732	3.788	3.869	7.657	68.641	134.485	203.126	0.140	68.598
733	3.788	3.854	7.642	68.642	133.944	202.586	0.128	69.007
734	3.788	3.837	7.626	68.643	133.376	202.020	0.117	69.111
735	3.788	3.820	7.609	68.645	132.787	201.432	0.107	67.846
736	3.788	3.804	7.592	68.646	132.219	200.865	0.097	67.050
737	3.789	3.788	7.576	68.647	131.660	200.308	0.090	67.362
738	3.789	3.772	7.560	68.649	131.100	199.748	0.082	67.086
739	3.789	3.755	7.544	68.650	130.530	199.180	0.077	68.504
740	3.789	3.739	7.528	68.650	129.963	198.613	0.071	69.230
741	3.789	3.722	7.511	68.650	129.377	198.027	0.065	68.436
742	3.789	3.706	7.494	68.650	128.799	197.449	0.059	68.075
743	3.789	3.689	7.478	68.650	128.223	196.873	0.054	67.422
744	3.789	3.672	7.461	68.650	127.640	196.290	0.050	66.918
745	3.789	3.655	7.444	68.650	127.056	195.706	0.046	67.866
746	3.789	3.638	7.427	68.650	126.463	195.113	0.042	68.152
747	3.789	3.621	7.410	68.650	125.868	194.518	0.039	68.865
748	3.789	3.604	7.393	68.650	125.265	193.915	0.036	69.299
749	3.789	3.587	7.375	68.650	124.663	193.313	0.033	68.646
750	3.789	3.569	7.358	68.650	124.066	192.716	0.030	67.837
751	3.789	3.552	7.341	68.650	123.474	192.124	0.028	67.580
752	3.789	3.536	7.324	68.650	122.890	191.540	0.026	67.528
753	3.789	3.519	7.307	68.650	122.300	190.950	0.024	68.212
754	3.789	3.502	7.290	68.650	121.709	190.359	0.022	68.487
755	3.789	3.484	7.273	68.650	121.103	189.753	0.020	68.629
756	3.789	3.467	7.256	68.650	120.501	189.151	0.019	68.705
757	3.789	3.450	7.238	68.650	119.904	188.554	0.017	67.427
758	3.789	3.433	7.221	68.650	119.316	187.966	0.016	66.815
759	3.789	3.416	7.205	68.650	118.733	187.383	0.014	66.794
760	3.789	3.400	7.188	68.650	118.165	186.815	0.013	66.878
761	3.789	3.396	7.185	68.650	118.036	186.686	0.012	67.154
762	3.789	3.394	7.182	68.650	117.961	186.611	0.007	67.884
763	3.789	3.384	7.173	68.650	117.623	186.273	0.009	67.798
764	3.789	3.379	7.167	68.650	117.436	186.086	0.010	67.222
765	3.789	3.371	7.160	68.650	117.172	185.822	0.007	66.786
766	3.789	3.361	7.150	68.650	116.839	185.489	0.005	66.180
767	3.789	3.350	7.139	68.650	116.448	185.098	0.006	66.476
768	3.789	3.337	7.125	68.650	115.979	184.629	0.004	66.719
769	3.789	3.321	7.110	68.650	115.442	184.092	0.004	66.727
770	3.789	3.306	7.094	68.650	114.899	183.549	0.005	66.818
771	3.789	3.289	7.078	68.650	114.338	182.988	0.005	66.755
772	3.789	3.273	7.062	68.650	113.772	182.422	0.003	66.150
773	3.789	3.257	7.046	68.650	113.205	181.855	0.005	65.948
774	3.789	3.241	7.029	68.650	112.639	181.289	0.004	65.655
775	3.789	3.224	7.013	68.650	112.074	180.724	0.004	65.472
776	3.789	3.208	6.997	68.650	111.511	180.161	0.004	65.832
777	3.789	3.192	6.981	68.650	110.943	179.593	0.002	65.836
778	3.789	3.175	6.964	68.650	110.375	179.025	0.003	65.550
779	3.789	3.159	6.948	68.650	109.809	178.459	0.003	65.087
780	3.789	3.143	6.932	68.650	109.245	177.895	0.003	64.251
781	3.789	3.127	6.916	68.650	108.695	177.345	0.003	64.040
782	3.789	3.111	6.900	68.650	108.144	176.794	0.003	63.985
783	3.789	3.095	6.884	68.650	107.593	176.243	0.002	64.432
784	3.789	3.079	6.868	68.650	107.039	175.689	0.002	64.586
785	3.789	3.064	6.852	68.650	106.487	175.137	0.002	64.836
786	3.789	3.048	6.836	68.650	105.932	174.582	0.002	64.476
787	3.789	3.032	6.820	68.650	105.375	174.025	0.002	63.776
788	3.789	3.016	6.805	68.650	104.834	173.484	0.002	63.194
789	3.789	3.001	6.789	68.650	104.301	172.951	0.002	62.864
790	3.789	2.985	6.774	68.650	103.770	172.420	0.002	63.154
791	3.789	2.971	6.759	68.650	103.258	171.908	0.001	63.311
792	3.789	2.956	6.744	68.650	102.733	171.383	0.001	63.360
793	3.789	2.941	6.729	68.650	102.211	170.861	0.001	62.968
794	3.789	2.926	6.715	68.650	101.698	170.348	0.001	62.124
795	3.789	2.911	6.700	68.650	101.185	169.835	0.001	61.763
796	3.789	2.896	6.685	68.650	100.675	169.325	0.001	61.220
797	3.789	2.882	6.671	68.650	100.179	168.829	0.001	61.146
798	3.789	2.868	6.656	68.650	99.673	168.323	0.001	61.446
799	3.789	2.853	6.642	68.650	99.160	167.810	0.001	61.887
800	3.789	2.838	6.627	68.650	98.651	167.301	0.001	61.904
801	3.789	2.824	6.612	68.650	98.148	166.798	0.001	61.399
802	3.789	2.809	6.598	68.650	97.641	166.291	0.000	60.886
803	3.789	2.795	6.583	68.650	97.139	165.789	0.001	60.497
804	3.789	2.781	6.569	68.650	96.648	165.298	0.001	60.450
805	3.789	2.766	6.555	68.650	96.151	164.801	0.001	60.956
806	3.789	2.752	6.541	68.650	95.660	164.310	0.001	61.330
807	3.789	2.737	6.526	68.650	95.147	163.797	0.000	61.143
808	3.789	2.723	6.511	68.650	94.639	163.289	0.000	61.010
809	3.789	2.708	6.497	68.650	94.133	162.783	0.001	60.543
810	3.789	2.694	6.483	68.650	93.643	162.293	0.001	60.056
811	3.789	2.680	6.469	68.650	93.156	161.806	0.001	60.036
812	3.789	2.666	6.455	68.650	92.669	161.319	0.000	60.250
813	3.789	2.652	6.441	68.650	92.192	160.842	0.000	60.745
814	3.789	2.639	6.427	68.650	91.719	160.369	0.000	61.110
815	3.789	2.626	6.415	68.650	91.291	159.941	0.000	60.887
816	3.789	2.614	6.403	68.650	90.867	159.517	0.000	60.738
817	3.789	2.603	6.392	68.650	90.474	159.124	0.000	59.884
818	3.789	2.591	6.380	68.650	90.076	158.726	0.000	59.571
819	3.789	2.580	6.369	68.650	89.693	158.343	0.000	60.070
820	3.789	2.568	6.357	68.650	89.270	157.920	0.000	60.276
821	3.789	2.557	6.345	68.650	88.865	157.515	0.000	60.169
822	3.789	2.543	6.332	68.650	88.396	157.046	0.000	60.041
823	3.789	2.530	6.319	68.650	87.948	156.598	0.000	59.670
824	3.789	2.521	6.310	68.650	87.632	156.282	0.000	59.536
825	3.789	2.509	6.297	68.650	87.195	155.845	0.000	59.754
826	3.789	2.495	6.284	68.650	86.740	155.390	0.000	59.606
827	3.789	2.483	6.272	68.650	86.303	154.953	0.000	59.767
828	3.789	2.470	6.258	68.650	85.839	154.489	0.000	60.703
829	3.789	2.458	6.247	68.650	85.431	154.081	0.000	61.101
830	3.789	2.445	6.234	68.650	84.982	153.632	0.000	60.784
831	3.789	2.432	6.221	68.650	84.542	153.192	0.000	60.495
832	3.789	2.420	6.208	68.650	84.100	152.750	0.000	59.909
833	3.789	2.407	6.196	68.650	83.674	152.324	0.000	59.889
834	3.789	2.394	6.183	68.650	83.220	151.870	0.000	60.305
835	3.789	2.381	6.170	68.650	82.773	151.423	0.000	60.499
836	3.789	2.368	6.156	68.650	82.291	150.941	0.000	60.568
837	3.789	2.354	6.143	68.650	81.822	150.472	0.000	60.302
838	3.789	2.340	6.129	68.650	81.336	149.986	0.000	59.764
839	3.789	2.326	6.115	68.650	80.859	149.509	0.000	59.916
840	3.789	2.313	6.101	68.650	80.380	149.030	0.000	59.768
841	3.789	2.299	6.087	68.650	79.894	148.544	0.000	59.943
842	3.789	2.285	6.073	68.650	79.409	148.059	0.000	60.421
843	3.789	2.271	6.059	68.650	78.926	147.576	0.000	60.798
844	3.789	2.257	6.045	68.650	78.435	147.085	0.000	61.216
845	3.789	2.243	6.031	68.650	77.949	146.599	0.000	61.205
846	3.789	2.228	6.017	68.650	77.448	146.098	0.000	61.036
847	3.789	2.214	6.002	68.650	76.947	145.597	0.000	60.939
848	3.789	2.200	5.988	68.650	76.459	145.109	0.000	60.788
849	3.789	2.186	5.974	68.650	75.972	144.622	0.000	60.988
850	3.789	2.172	5.960	68.650	75.485	144.135	0.000	61.353
851	3.789	2.159	5.948	68.650	75.040	143.690	0.000	61.782
852	3.789	2.145	5.934	68.650	74.551	143.201	0.000	61.626
853	3.789	2.131	5.920	68.650	74.065	142.715	0.000	61.438
854	3.789	2.117	5.906	68.650	73.583	142.233	0.000	61.232
855	3.789	2.105	5.893	68.650	73.159	141.809	0.000	61.311
856	3.789	2.092	5.880	68.650	72.702	141.352	0.000	61.772
857	3.789	2.078	5.866	68.650	72.212	140.862	0.000	62.118
858	3.789	2.063	5.852	68.650	71.708	140.358	0.000	62.397
859	3.789	2.048	5.837	68.650	71.201	139.851	0.000	62.288
860	3.789	2.034	5.823	68.650	70.695	139.345	0.000	61.988
861	3.789	2.019	5.808	68.650	70.191	138.841	0.000	62.100
862	3.789	2.005	5.794	68.650	69.688	138.338	0.000	61.988
863	3.789	1.990	5.779	68.650	69.180	137.830	0.000	62.226
864	3.789	1.976	5.764	68.650	68.668	137.318	0.000	62.507
865	3.789	1.961	5.750	68.650	68.163	136.813	0.000	62.233
866	3.789	1.947	5.735	68.650	67.667	136.317	0.000	61.855
867	3.789	1.934	5.723	68.650	67.232	135.882	0.000	62.082
868	3.789	1.921	5.709	68.650	66.762	135.412	0.000	62.118
869	3.789	1.907	5.695	68.650	66.269	134.919	0.000	61.982
870	3.789	1.892	5.681	68.650	65.779	134.429	0.000	62.552
871	3.789	1.878	5.667	68.650	65.276	133.926	0.000	62.534
872	3.789	1.864	5.652	68.650	64.779	133.429	0.000	62.375
873	3.789	1.849	5.638	68.650	64.276	132.926	0.000	62.705
874	3.789	1.835	5.624	68.650	63.775	132.425	0.000	62.737
875	3.789	1.821	5.609	68.650	63.282	131.932	0.000	62.762
876	3.789	1.807	5.595	68.650	62.795	131.445	0.000	62.542
877	3.789	1.792	5.581	68.650	62.297	130.947	0.000	62.508
878	3.789	1.778	5.567	68.650	61.796	130.446	0.000	62.494
879	3.789	1.763	5.552	68.650	61.296	129.946	0.000	62.292
880	3.789	1.749	5.538	68.650	60.805	129.455	0.000	62.272
881	3.789	1.735	5.524	68.650	60.313	128.963	0.000	62.532
882	3.789	1.721	5.510	68.650	59.834	128.484	0.000	62.274
883	3.789	1.707	5.496	68.650	59.344	127.994	0.000	62.350
884	3.789	1.693	5.482	68.650	58.855	127.505	0.000	62.513
885	3.789	1.679	5.468	68.650	58.362	127.012	0.000	62.506
886	3.789	1.665	5.453	68.650	57.862	126.512	0.000	62.535
887	3.789	1.651	5.440	68.650	57.380	126.030	0.000	62.304
888	3.789	1.637	5.426	68.650	56.898	125.548	0.000	62.405
889	3.789	1.623	5.412	68.650	56.409	125.059	0.000	62.647
890	3.789	1.609	5.397	68.650	55.910	124.560	0.000	62.600
891	3.789	1.594	5.383	68.650	55.417	124.067	0.000	62.389
892	3.789	1.580	5.369	68.650	54.924	123.574	0.000	62.761
893	3.789	1.566	5.355	68.650	54.437	123.087	0.000	62.904
894	3.789	1.553	5.341	68.650	53.966	122.616	0.000	63.451
895	3.789	1.539	5.328	68.650	53.503	122.153	0.000	63.461
896	3.789	1.527	5.315	68.650	53.060	121.710	0.000	63.504
897	3.789	1.515	5.303	68.650	52.643	121.293	0.000	63.628
898	3.789	1.504	5.293	68.650	52.277	120.927	0.000	63.786
899	3.789	1.493	5.281	68.650	51.882	120.532	0.000	63.507
900	3.789	1.484	5.273	68.650	51.580	120.230	0.000	63.193
901	3.789	1.472	5.261	68.650	51.175	119.825	0.000	63.040
902	3.789	1.463	5.252	68.650	50.847	119.497	0.000	63.153
903	3.789	1.452	5.241	68.650	50.481	119.131	0.000	63.233
904	3.789	1.441	5.230	68.650	50.102	118.752	0.000	63.108
905	3.789	1.428	5.217	68.650	49.640	118.290	0.000	63.032
906	3.789	1.415	5.204	68.650	49.192	117.842	0.000	62.519
907	3.789	1.403	5.192	68.650	48.770	117.420	0.000	63.051
908	3.789	1.393	5.182	68.650	48.419	117.069	0.000	62.976
909	3.789	1.383	5.171	68.650	48.059	116.709	0.000	63.227
910	3.789	1.371	5.160	68.650	47.670	116.320	0.000	63.654
911	3.789	1.361	5.150	68.650	47.321	115.971	0.000	63.830
912	3.789	1.351	5.139	68.650	46.946	115.596	0.000	63.683
913	3.789	1.340	5.128	68.650	46.561	115.211	0.000	63.585
914	3.789	1.329	5.118	68.650	46.209	114.859	0.000	63.139
915	3.789	1.319	5.108	68.650	45.861	114.511	0.000	63.128
916	3.789	1.309	5.097	68.650	45.484	114.134	0.000	63.238
917	3.789	1.299	5.088	68.650	45.162	113.812	0.000	63.274
918	3.789	1.288	5.076	68.650	44.754	113.404	0.000	63.509
919	3.789	1.278	5.067	68.650	44.421	113.071	0.000	62.961
920	3.789	1.266	5.055	68.650	44.009	112.659	0.000	63.113
921	3.789	1.254	5.043	68.650	43.594	112.244	0.000	63.140
922	3.789	1.242	5.030	68.650	43.158	111.808	0.000	62.646
923	3.789	1.230	5.019	68.650	42.768	111.418	0.000	62.549
924	3.789	1.219	5.007	68.650	42.353	111.003	0.000	62.812
925	3.789	1.207	4.996	68.650	41.950	110.600	0.000	62.763
926	3.789	1.195	4.984	68.650	41.553	110.203	0.000	62.693
927	3.789	1.184	4.973	68.650	41.159	109.809	0.000	62.327
928	3.789	1.172	4.960	68.650	40.722	109.372	0.000	62.159
929	3.789	1.162	4.951	68.650	40.393	109.043	0.000	62.060
930	3.789	1.153	4.942	68.650	40.086	108.736	0.000	61.699
931	3.789	1.146	4.935	68.650	39.846	108.496	0.000	61.736
932	3.789	1.140	4.929	68.650	39.619	108.269	0.000	61.617
933	3.789	1.135	4.924	68.650	39.451	108.101	0.000	61.423
934	3.789	1.131	4.920	68.650	39.312	107.962	0.000	61.371
935	3.789	1.129	4.917	68.650	39.231	107.881	0.000	61.012
936	3.789	1.125	4.913	68.650	39.093	107.743	0.000	60.698
937	3.789	1.122	4.911	68.650	39.003	107.653	0.000	60.521
938	3.789	1.120	4.908	68.650	38.913	107.563	0.000	60.249
939	3.789	1.116	4.905	68.650	38.802	107.452	0.000	60.698
940	3.789	1.110	4.899	68.650	38.581	107.231	0.000	60.877
941	3.789	1.102	4.891	68.650	38.320	106.970	0.000	60.655
942	3.789	1.097	4.885	68.650	38.114	106.764	0.000	60.553
943	3.789	1.090	4.879	68.650	37.889	106.539	0.000	60.247
944	3.789	1.086	4.874	68.650	37.736	106.386	0.000	59.932
945	3.789	1.081	4.870	68.650	37.579	106.229	0.000	59.869
946	3.789	1.075	4.864	68.650	37.378	106.028	0.000	59.689
947	3.789	1.072	4.861	68.650	37.271	105.921	0.000	59.600
948	3.789	1.066	4.855	68.650	37.068	105.718	0.000	59.460
949	3.789	1.062	4.851	68.650	36.918	105.568	0.000	59.209
950	3.789	1.054	4.843	68.650	36.649	105.299	0.000	58.931
951	3.789	1.052	4.841	68.650	36.569	105.219	0.000	58.821
952	3.789	1.045	4.833	68.650	36.306	104.956	0.000	58.754
953	3.789	1.040	4.829	68.650	36.159	104.809	0.000	58.961
954	3.789	1.035	4.824	68.650	35.972	104.622	0.000	59.051
955	3.789	1.028	4.817	68.650	35.740	104.390	0.000	58.962
956	3.789	1.023	4.812	68.650	35.554	104.204	0.000	58.981
957	3.789	1.018	4.806	68.650	35.374	104.024	0.000	58.664
958	3.789	1.013	4.802	68.650	35.226	103.876	0.000	58.420
959	3.789	1.006	4.795	68.650	34.976	103.626	0.000	58.196
960	3.789	1.000	4.789	68.650	34.774	103.424	0.000	58.012
961	3.789	0.994	4.783	68.650	34.547	103.197	0.000	57.923
962	3.789	0.987	4.775	68.650	34.298	102.948	0.000	57.852
963	3.789	0.980	4.769	68.650	34.060	102.710	0.000	57.846
964	3.789	0.972	4.761	68.650	33.787	102.437	0.000	57.913
965	3.789	0.965	4.754	68.650	33.540	102.190	0.000	57.665
966	3.789	0.957	4.746	68.650	33.268	101.918	0.000	57.525
967	3.789	0.949	4.738	68.650	32.998	101.648	0.000	57.640
968	3.789	0.942	4.730	68.650	32.726	101.376	0.000	57.676
969	3.789	0.931	4.720	68.650	32.375	101.025	0.000	57.764
970	3.789	0.921	4.709	68.650	32.004	100.654	0.000	57.617
971	3.789	0.911	4.700	68.650	31.661	100.311	0.000	57.287
972	3.789	0.900	4.689	68.650	31.277	99.927	0.000	56.923
973	3.789	0.889	4.678	68.650	30.910	99.560	0.000	56.688
974	3.789	0.880	4.669	68.650	30.586	99.236	0.000	56.367
975	3.789	0.871	4.660	68.650	30.280	98.930	0.000	56.197
976	3.789	0.862	4.651	68.650	29.968	98.618	0.000	56.114
977	3.789	0.853	4.642	68.650	29.665	98.315	0.000	56.169
978	3.789	0.844	4.632	68.650	29.325	97.975	0.000	56.144
979	3.789	0.834	4.623	68.650	28.999	97.649	0.000	55.945
980	3.789	0.825	4.613	68.650	28.661	97.311	0.000	55.960
981	3.789	0.815	4.604	68.650	28.340	96.990	0.000	55.905
982	3.789	0.804	4.593	68.650	27.961	96.611	0.000	55.781
983	3.789	0.794	4.583	68.650	27.594	96.244	0.000	55.705
984	3.789	0.784	4.572	68.650	27.240	95.890	0.000	55.406
985	3.789	0.773	4.561	68.650	26.851	95.501	0.000	55.080
986	3.789	0.762	4.551	68.650	26.490	95.140	0.000	54.729
987	3.789	0.751	4.540	68.650	26.099	94.749	0.000	54.224
988	3.789	0.740	4.529	68.650	25.717	94.367	0.000	53.903
989	3.789	0.729	4.518	68.650	25.338	93.988	0.001	53.660
990	3.789	0.718	4.507	68.650	24.954	93.604	0.002	53.432
991	3.789	0.707	4.496	68.650	24.581	93.231	0.001	53.279
992	3.789	0.696	4.485	68.650	24.197	92.847	0.000	53.148
993	3.789	0.685	4.474	68.650	23.815	92.465	0.000	53.032
994	3.789	0.674	4.463	68.650	23.440	92.090	0.002	52.920
995	3.789	0.663	4.452	68.650	23.056	91.706	0.000	52.790
996	3.789	0.652	4.441	68.650	22.675	91.325	0.000	52.725
997	3.789	0.641	4.430	68.650	22.295	90.945	0.000	52.375
998	3.789	0.631	4.419	68.650	21.922	90.572	0.000	51.922
999	3.789	0.620	4.409	68.650	21.552	90.202	0.000	51.543
1000	3.789	0.609	4.398	68.650	21.184	89.834	0.000	51.052
1001	3.789	0.599	4.388	68.650	20.820	89.470	0.000	50.583
1002	3.789	0.589	4.377	68.650	20.456	89.106	0.000	50.147
1003	3.789	0.578	4.367	68.650	20.101	88.751	0.000	49.733
1004	3.789	0.568	4.357	68.650	19.747	88.397	0.000	49.536
1005	3.789	0.558	4.347	68.650	19.399	88.049	0.000	49.456
1006	3.789	0.549	4.337	68.650	19.071	87.721	0.000	49.190
1007	3.789	0.539	4.328	68.650	18.731	87.381	0.000	49.052
1008	3.789	0.529	4.318	68.650	18.383	87.033	0.000	48.695
1009	3.789	0.519	4.308	68.650	18.038	86.688	0.000	48.547
1010	3.789	0.509	4.298	68.650	17.697	86.347	0.000	48.406
1011	3.789	0.499	4.288	68.650	17.357	86.007	0.000	48.125
1012	3.789	0.490	4.278	68.650	17.017	85.667	0.000	47.683
1013	3.789	0.480	4.269	68.650	16.681	85.331	0.000	47.260
1014	3.789	0.470	4.259	68.650	16.349	84.999	0.000	46.898
1015	3.789	0.461	4.250	68.650	16.017	84.667	0.000	46.277
1016	3.789	0.452	4.240	68.650	15.695	84.345	0.000	45.975
1017	3.789	0.442	4.231	68.650	15.373	84.023	0.000	45.337
1018	3.789	0.433	4.222	68.650	15.060	83.710	0.000	44.881
1019	3.789	0.424	4.213	68.650	14.744	83.394	0.000	44.218
1020	3.789	0.416	4.204	68.650	14.443	83.093	0.000	43.832
1021	3.789	0.407	4.196	68.650	14.141	82.791	0.000	43.532
1022	3.789	0.398	4.187	68.650	13.839	82.489	0.000	43.069
1023	3.789	0.390	4.178	68.650	13.544	82.194	0.000	42.608
1024	3.789	0.381	4.170	68.650	13.251	81.901	0.000	42.064
1025	3.789	0.373	4.162	68.650	12.963	81.613	0.000	41.433
1026	3.789	0.365	4.153	68.650	12.676	81.326	0.000	40.796
1027	3.789	0.357	4.145	68.650	12.394	81.044	0.000	40.246
1028	3.789	0.349	4.137	68.650	12.116	80.766	0.000	39.760
1029	3.789	0.341	4.129	68.650	11.841	80.491	0.000	39.293
1030	3.789	0.333	4.122	68.650	11.572	80.222	0.000	38.949
1031	3.789	0.325	4.114	68.650	11.303	79.953	0.000	38.773
1032	3.789	0.318	4.106	68.650	11.037	79.687	0.000	38.700
1033	3.789	0.310	4.099	68.650	10.770	79.420	0.000	38.677
1034	3.789	0.302	4.091	68.650	10.508	79.158	0.000	38.486
1035	3.789	0.295	4.083	68.650	10.245	78.895	0.000	38.024
1036	3.789	0.287	4.076	68.650	9.985	78.635	0.000	37.508
1037	3.789	0.280	4.069	68.650	9.729	78.379	0.000	36.737
1038	3.789	0.273	4.061	68.650	9.479	78.129	0.000	36.238
1039	3.789	0.266	4.054	68.650	9.234	77.884	0.000	35.699
1040	3.789	0.259	4.047	68.650	8.991	77.641	0.000	35.324
1041	3.789	0.252	4.040	68.650	8.751	77.401	0.000	35.172
1042	3.789	0.245	4.034	68.650	8.513	77.163	0.000	34.756
1043	3.789	0.238	4.027	68.650	8.277	76.927	0.000	34.413
1044	3.789	0.231	4.020	68.650	8.045	76.695	0.000	34.104
1045	3.789	0.225	4.014	68.650	7.814	76.464	0.001	33.940
1046	3.789	0.218	4.007	68.650	7.586	76.236	0.001	33.615
1047	3.789	0.212	4.001	68.650	7.365	76.015	0.001	33.328
1048	3.789	0.206	3.994	68.650	7.144	75.794	0.000	32.879
1049	3.789	0.199	3.988	68.650	6.922	75.572	0.000	32.456
1050	3.789	0.193	3.982	68.650	6.704	75.354	0.001	31.919
1051	3.789	0.187	3.975	68.650	6.491	75.141	0.001	31.378
1052	3.789	0.181	3.969	68.650	6.281	74.931	0.000	30.949
1053	3.789	0.175	3.963	68.650	6.075	74.725	0.000	30.423
1054	3.789	0.169	3.958	68.650	5.874	74.524	0.001	30.122
1055	3.789	0.163	3.952	68.650	5.675	74.325	0.000	29.830
1056	3.789	0.158	3.946	68.650	5.478	74.128	0.000	29.673
1057	3.789	0.152	3.941	68.650	5.281	73.931	0.000	29.269
1058	3.789	0.146	3.935	68.650	5.087	73.737	0.000	28.827
1059	3.789	0.141	3.930	68.650	4.899	73.549	0.000	28.622
1060	3.789	0.136	3.924	68.650	4.717	73.367	0.000	28.289
1061	3.789	0.130	3.919	68.650	4.532	73.182	0.000	28.069
1062	3.789	0.125	3.914	68.650	4.352	73.002	0.000	27.760
1063	3.789	0.120	3.909	68.650	4.171	72.821	0.000	28.468
1064	3.789	0.115	3.903	68.650	3.987	72.637	0.000	29.941
1065	3.789	0.109	3.898	68.650	3.792	72.442	0.000	27.648
1066	3.789	0.104	3.893	68.650	3.613	72.263	0.000	24.607
1067	3.789	0.099	3.888	68.650	3.456	72.106	0.000	22.998
1068	3.789	0.095	3.884	68.650	3.308	71.958	0.000	21.726
1069	3.789	0.091	3.880	68.650	3.168	71.818	0.000	19.682
1070	3.789	0.088	3.876	68.650	3.048	71.698	0.000	19.491
1071	3.789	0.084	3.873	68.650	2.926	71.576	0.000	21.406
1072	3.789	0.080	3.869	68.650	2.788	71.438	0.000	22.972
1073	3.789	0.076	3.865	68.650	2.640	71.290	0.000	21.523
1074	3.789	0.072	3.861	68.650	2.505	71.155	0.000	20.854
1075	3.789	0.068	3.857	68.650	2.370	71.020	0.000	20.534
1076	3.789	0.065	3.853	68.650	2.242	70.892	0.000	20.462
1077	3.789	0.061	3.849	68.650	2.111	70.761	0.000	20.282
1078	3.789	0.057	3.846	68.650	1.982	70.632	0.000	19.813
1079	3.789	0.053	3.842	68.650	1.857	70.507	0.000	19.074
1080	3.789	0.050	3.839	68.650	1.736	70.386	0.000	18.182
1081	3.789	0.047	3.835	68.650	1.623	70.273	0.000	17.466
1082	3.789	0.044	3.832	68.650	1.516	70.166	0.000	17.172
1083	3.789	0.041	3.829	68.650	1.409	70.059	0.000	17.013
1084	3.789	0.037	3.826	68.650	1.302	69.952	0.000	16.694
1085	3.789	0.035	3.823	68.650	1.200	69.850	0.000	16.210
1086	3.789	0.032	3.820	68.650	1.098	69.748	0.000	15.892
1087	3.789	0.029	3.818	68.650	1.004	69.654	0.000	15.360
1088	3.789	0.026	3.815	68.650	0.913	69.563	0.000	14.871
1089	3.789	0.024	3.812	68.650	0.820	69.470	0.000	14.636
1090	3.789	0.021	3.810	68.650	0.729	69.379	0.001	14.357
1091	3.789	0.019	3.807	68.650	0.644	69.294	0.002	14.022
1092	3.789	0.016	3.805	68.650	0.556	69.206	0.002	13.626
1093	3.789	0.014	3.802	68.650	0.472	69.122	0.002	13.117
1094	3.789	0.012	3.800	68.650	0.400	69.050	0.003	12.612
1095	3.789	0.009	3.798	68.650	0.328	68.978	0.002	12.212
1096	3.789	0.007	3.796	68.650	0.260	68.910	0.000	12.091
1097	3.789	0.006	3.794	68.650	0.195	68.845	0.000	11.853
1098	3.789	0.004	3.792	68.650	0.122	68.772	0.000	11.422
1099	3.789	0.002	3.790	68.650	0.061	68.711	0.000	11.148
