Wavelength (nm) 	 Efficiency Div Wav 1 (%) 	 Efficiency Div Wav 2 (%) 	 Efficiency Div Wav total (%) 	 Jsc Div Wav 1 (A m^-2) 	 Jsc Div Wav 2 (A m^-2) 	 Jsc Div Wav total (A m^-2) 	 EQE Curve 1 (%) 	 EQE Curve 2 (%) 	Jsc 1 correction factor: 0.13134985171721028	Jsc 2 correction factor: 0.12112841760658835
400	0.000	7.235	7.235	0.000	236.729	236.729	11.562	10.421
401	0.002	7.234	7.236	0.041	236.695	236.735	12.501	11.198
402	0.005	7.233	7.237	0.087	236.656	236.743	12.457	11.252
403	0.007	7.231	7.239	0.135	236.616	236.751	12.445	11.118
404	0.010	7.230	7.240	0.183	236.577	236.760	12.315	10.934
405	0.013	7.229	7.242	0.230	236.538	236.768	12.395	11.031
406	0.015	7.228	7.243	0.277	236.500	236.777	12.285	11.121
407	0.018	7.227	7.244	0.323	236.462	236.785	12.613	11.520
408	0.020	7.225	7.246	0.369	236.423	236.792	12.719	11.689
409	0.023	7.224	7.247	0.418	236.382	236.800	12.726	11.936
410	0.026	7.223	7.249	0.470	236.337	236.808	12.815	11.984
411	0.028	7.222	7.250	0.515	236.299	236.813	12.862	12.091
412	0.031	7.220	7.252	0.566	236.255	236.821	12.899	12.294
413	0.034	7.219	7.253	0.620	236.206	236.826	12.759	12.286
414	0.037	7.217	7.254	0.673	236.160	236.833	12.997	12.373
415	0.040	7.216	7.256	0.725	236.114	236.839	12.881	12.543
416	0.043	7.214	7.257	0.779	236.066	236.845	13.102	12.745
417	0.046	7.213	7.259	0.835	236.015	236.850	13.272	13.098
418	0.049	7.211	7.261	0.892	235.964	236.856	13.589	12.912
419	0.052	7.210	7.262	0.947	235.916	236.863	13.613	13.023
420	0.055	7.208	7.264	1.005	235.865	236.870	13.375	12.797
421	0.058	7.207	7.265	1.057	235.819	236.876	13.366	12.873
422	0.062	7.205	7.267	1.118	235.766	236.883	13.586	13.136
423	0.065	7.204	7.269	1.178	235.712	236.890	13.738	13.238
424	0.068	7.202	7.270	1.237	235.659	236.896	13.738	13.215
425	0.072	7.200	7.272	1.296	235.607	236.903	13.556	13.106
426	0.075	7.199	7.274	1.357	235.552	236.909	13.906	13.488
427	0.078	7.197	7.275	1.417	235.498	236.915	14.082	13.509
428	0.081	7.195	7.277	1.476	235.445	236.921	14.032	13.529
429	0.085	7.194	7.279	1.537	235.391	236.928	13.719	13.177
430	0.088	7.192	7.280	1.592	235.343	236.935	13.922	13.420
431	0.090	7.191	7.281	1.637	235.303	236.939	14.528	14.214
432	0.093	7.190	7.283	1.679	235.264	236.943	14.560	14.112
433	0.097	7.188	7.285	1.750	235.201	236.951	14.586	14.148
434	0.100	7.186	7.286	1.815	235.142	236.957	14.557	14.036
435	0.104	7.185	7.288	1.877	235.087	236.964	14.692	14.361
436	0.107	7.183	7.290	1.945	235.025	236.971	14.693	14.384
437	0.111	7.181	7.292	2.020	234.958	236.978	14.521	14.156
438	0.116	7.179	7.294	2.096	234.890	236.986	15.037	14.590
439	0.120	7.177	7.296	2.166	234.828	236.994	15.441	14.996
440	0.123	7.175	7.298	2.234	234.766	237.001	15.297	15.210
441	0.128	7.173	7.300	2.313	234.695	237.008	15.328	14.774
442	0.132	7.170	7.302	2.391	234.626	237.016	15.729	15.075
443	0.137	7.168	7.305	2.476	234.551	237.027	16.234	15.671
444	0.142	7.166	7.307	2.565	234.471	237.036	16.095	15.582
445	0.146	7.163	7.310	2.652	234.393	237.045	16.159	15.434
446	0.151	7.161	7.312	2.744	234.313	237.057	16.555	15.747
447	0.156	7.159	7.315	2.828	234.239	237.067	16.584	15.879
448	0.161	7.156	7.318	2.925	234.155	237.080	16.802	16.291
449	0.167	7.153	7.320	3.024	234.066	237.090	17.210	16.568
450	0.172	7.151	7.323	3.125	233.976	237.101	17.540	16.868
451	0.178	7.148	7.326	3.233	233.881	237.113	17.124	16.499
452	0.184	7.145	7.329	3.342	233.784	237.125	17.084	16.358
453	0.190	7.142	7.332	3.447	233.692	237.138	17.706	17.054
454	0.196	7.139	7.335	3.548	233.602	237.150	18.258	17.666
455	0.202	7.136	7.338	3.659	233.503	237.162	18.840	18.334
456	0.208	7.133	7.341	3.775	233.400	237.175	19.334	18.782
457	0.215	7.130	7.345	3.897	233.291	237.188	19.504	18.927
458	0.222	7.126	7.348	4.022	233.179	237.201	19.224	18.843
459	0.229	7.123	7.352	4.143	233.070	237.213	19.260	19.011
460	0.235	7.120	7.355	4.264	232.960	237.224	19.688	19.269
461	0.242	7.116	7.358	4.386	232.850	237.236	20.328	19.750
462	0.249	7.113	7.362	4.518	232.731	237.250	20.332	19.645
463	0.257	7.109	7.366	4.652	232.613	237.265	20.584	19.985
464	0.264	7.105	7.370	4.789	232.490	237.279	20.753	20.150
465	0.272	7.102	7.373	4.923	232.370	237.293	20.422	19.956
466	0.279	7.098	7.377	5.053	232.253	237.306	21.152	20.273
467	0.286	7.094	7.381	5.191	232.130	237.321	21.353	20.655
468	0.294	7.091	7.384	5.324	232.012	237.335	21.370	20.751
469	0.301	7.087	7.388	5.463	231.887	237.350	21.790	21.019
470	0.309	7.083	7.392	5.606	231.760	237.366	22.688	21.719
471	0.317	7.079	7.396	5.749	231.633	237.382	22.479	21.411
472	0.325	7.075	7.400	5.895	231.504	237.399	21.750	20.650
473	0.334	7.071	7.405	6.043	231.373	237.417	23.342	22.252
474	0.342	7.067	7.409	6.197	231.239	237.436	23.878	23.050
475	0.351	7.063	7.413	6.356	231.097	237.453	23.233	22.166
476	0.360	7.058	7.418	6.518	230.956	237.473	23.282	22.259
477	0.368	7.054	7.422	6.674	230.817	237.491	24.364	23.121
478	0.377	7.050	7.427	6.839	230.673	237.513	24.203	22.959
479	0.387	7.045	7.432	7.009	230.526	237.534	24.661	23.152
480	0.396	7.041	7.437	7.180	230.378	237.557	24.003	23.004
481	0.406	7.036	7.442	7.348	230.229	237.576	23.919	22.464
482	0.415	7.032	7.446	7.516	230.083	237.599	24.744	23.210
483	0.425	7.027	7.452	7.692	229.932	237.624	25.162	23.939
484	0.434	7.022	7.457	7.868	229.777	237.645	25.491	23.911
485	0.444	7.018	7.462	8.044	229.624	237.668	26.253	24.354
486	0.454	7.013	7.467	8.226	229.468	237.695	26.191	24.565
487	0.462	7.009	7.471	8.374	229.341	237.714	26.770	25.264
488	0.471	7.004	7.476	8.542	229.194	237.736	28.270	26.276
489	0.482	6.999	7.482	8.736	229.027	237.763	29.497	26.960
490	0.493	6.994	7.487	8.927	228.866	237.793	29.705	27.247
491	0.505	6.989	7.493	9.142	228.683	237.825	29.855	27.751
492	0.516	6.983	7.499	9.349	228.505	237.855	30.286	28.064
493	0.527	6.978	7.505	9.552	228.332	237.884	30.998	28.371
494	0.539	6.972	7.512	9.774	228.144	237.918	30.874	28.488
495	0.551	6.967	7.518	9.990	227.960	237.951	31.688	29.319
496	0.564	6.961	7.525	10.227	227.759	237.986	31.956	29.516
497	0.577	6.955	7.532	10.454	227.566	238.021	31.307	28.621
498	0.589	6.949	7.538	10.681	227.375	238.056	31.058	28.533
499	0.602	6.943	7.545	10.901	227.188	238.089	32.715	30.312
500	0.614	6.937	7.551	11.132	226.991	238.123	33.696	31.042
501	0.628	6.931	7.558	11.371	226.788	238.158	32.989	30.651
502	0.640	6.925	7.565	11.598	226.593	238.191	33.469	31.156
503	0.653	6.919	7.572	11.829	226.394	238.223	34.851	32.698
504	0.667	6.912	7.579	12.082	226.176	238.257	35.075	32.800
505	0.680	6.906	7.586	12.319	225.971	238.290	32.703	30.795
506	0.693	6.900	7.593	12.557	225.764	238.321	33.796	31.733
507	0.707	6.893	7.600	12.814	225.541	238.356	34.404	32.255
508	0.721	6.886	7.607	13.064	225.326	238.390	32.768	30.647
509	0.734	6.880	7.614	13.297	225.124	238.421	32.240	30.423
510	0.747	6.874	7.621	13.538	224.914	238.452	32.009	30.588
511	0.760	6.867	7.627	13.772	224.708	238.480	31.381	29.677
512	0.773	6.861	7.634	14.006	224.503	238.509	33.680	32.281
513	0.787	6.854	7.641	14.263	224.275	238.539	34.274	33.308
514	0.801	6.847	7.648	14.512	224.054	238.565	33.211	32.592
515	0.814	6.841	7.655	14.747	223.840	238.587	35.416	34.579
516	0.828	6.834	7.662	15.005	223.608	238.613	35.064	35.125
517	0.842	6.826	7.669	15.264	223.369	238.633	35.053	35.226
518	0.854	6.820	7.675	15.476	223.173	238.649	36.696	37.230
519	0.868	6.813	7.681	15.729	222.936	238.665	35.892	36.216
520	0.881	6.806	7.688	15.970	222.712	238.681	36.079	36.776
521	0.896	6.799	7.695	16.234	222.463	238.697	35.889	36.838
522	0.911	6.791	7.702	16.501	222.210	238.712	35.366	35.909
523	0.926	6.783	7.709	16.771	221.957	238.728	37.256	37.676
524	0.940	6.776	7.716	17.039	221.706	238.745	36.779	37.659
525	0.956	6.767	7.724	17.325	221.436	238.761	35.583	36.756
526	0.971	6.759	7.731	17.600	221.174	238.774	36.461	38.079
527	0.986	6.751	7.738	17.874	220.910	238.784	37.026	38.884
528	1.000	6.744	7.744	18.118	220.674	238.793	37.276	39.712
529	1.015	6.736	7.751	18.399	220.398	238.797	36.874	39.380
530	1.032	6.727	7.758	18.691	220.111	238.802	36.808	39.702
531	1.047	6.718	7.765	18.972	219.831	238.803	36.747	39.486
532	1.063	6.709	7.773	19.268	219.538	238.806	36.789	39.997
533	1.080	6.700	7.780	19.561	219.245	238.805	36.752	40.401
534	1.094	6.692	7.786	19.822	218.980	238.802	37.585	40.644
535	1.110	6.684	7.793	20.110	218.694	238.803	38.398	41.847
536	1.126	6.674	7.801	20.408	218.395	238.802	36.565	40.862
537	1.143	6.665	7.808	20.705	218.088	238.793	37.391	41.868
538	1.158	6.656	7.814	20.986	217.799	238.784	38.029	43.223
539	1.175	6.647	7.821	21.287	217.482	238.769	37.922	43.281
540	1.191	6.637	7.828	21.581	217.172	238.753	37.943	43.895
541	1.207	6.628	7.834	21.864	216.870	238.734	38.373	44.748
542	1.222	6.619	7.841	22.142	216.572	238.713	40.105	45.846
543	1.239	6.609	7.848	22.457	216.238	238.695	40.281	47.120
544	1.257	6.598	7.855	22.769	215.901	238.670	39.310	47.268
545	1.274	6.587	7.862	23.086	215.549	238.635	38.712	46.087
546	1.291	6.577	7.868	23.392	215.212	238.605	38.726	46.843
547	1.308	6.567	7.875	23.694	214.876	238.570	38.443	46.944
548	1.324	6.556	7.881	23.999	214.532	238.531	39.178	47.520
549	1.341	6.546	7.887	24.301	214.194	238.495	39.591	48.774
550	1.359	6.535	7.894	24.619	213.833	238.452	39.898	49.198
551	1.376	6.524	7.900	24.935	213.473	238.409	40.774	50.096
552	1.394	6.513	7.907	25.259	213.106	238.365	39.976	50.089
553	1.412	6.501	7.913	25.583	212.731	238.314	40.472	51.195
554	1.430	6.490	7.919	25.904	212.357	238.261	39.088	49.637
555	1.447	6.479	7.926	26.220	211.987	238.207	38.617	49.533
556	1.464	6.467	7.932	26.535	211.614	238.149	37.967	49.416
557	1.481	6.456	7.937	26.841	211.246	238.087	37.957	49.701
558	1.498	6.445	7.943	27.140	210.886	238.025	39.492	51.483
559	1.515	6.433	7.949	27.457	210.504	237.962	39.284	51.627
560	1.532	6.422	7.954	27.757	210.141	237.898	39.870	52.230
561	1.549	6.411	7.960	28.067	209.767	237.833	40.392	52.569
562	1.567	6.398	7.966	28.400	209.366	237.766	38.902	51.352
563	1.584	6.387	7.971	28.707	208.994	237.700	38.447	51.817
564	1.602	6.375	7.977	29.020	208.604	237.624	39.384	53.472
565	1.619	6.363	7.982	29.338	208.206	237.545	40.117	53.330
566	1.637	6.351	7.988	29.665	207.807	237.472	41.683	56.298
567	1.655	6.339	7.994	29.986	207.408	237.394	42.510	56.777
568	1.674	6.325	8.000	30.335	206.977	237.312	41.817	56.837
569	1.693	6.312	8.005	30.678	206.548	237.226	41.686	55.911
570	1.711	6.300	8.011	31.009	206.138	237.147	40.598	54.858
571	1.729	6.288	8.017	31.332	205.734	237.066	41.408	56.318
572	1.747	6.275	8.022	31.653	205.332	236.985	41.315	56.193
573	1.765	6.262	8.028	31.990	204.908	236.898	42.736	57.835
574	1.785	6.249	8.034	32.344	204.468	236.812	44.429	60.139
575	1.805	6.235	8.040	32.709	204.013	236.722	43.887	59.116
576	1.825	6.222	8.046	33.062	203.574	236.637	43.371	58.623
577	1.844	6.208	8.052	33.409	203.142	236.551	42.618	57.829
578	1.863	6.195	8.058	33.761	202.702	236.463	40.419	54.964
579	1.881	6.183	8.063	34.083	202.299	236.382	40.714	56.047
580	1.899	6.170	8.069	34.412	201.881	236.293	41.322	56.497
581	1.918	6.157	8.075	34.755	201.449	236.204	42.595	58.229
582	1.938	6.143	8.080	35.109	201.003	236.111	44.163	60.082
583	1.958	6.129	8.087	35.482	200.535	236.017	44.027	59.353
584	1.979	6.114	8.093	35.860	200.065	235.925	44.041	59.545
585	2.000	6.100	8.100	36.235	199.597	235.832	42.919	58.413
586	2.020	6.086	8.106	36.599	199.139	235.738	42.310	57.892
587	2.039	6.072	8.112	36.951	198.694	235.646	42.602	58.390
588	2.059	6.058	8.118	37.314	198.235	235.549	43.378	59.548
589	2.079	6.044	8.124	37.676	197.777	235.454	44.198	60.426
590	2.097	6.032	8.129	37.997	197.374	235.371	45.345	61.886
591	2.116	6.019	8.135	38.345	196.935	235.280	42.999	57.580
592	2.136	6.005	8.141	38.701	196.497	235.198	43.413	58.002
593	2.155	5.992	8.147	39.052	196.065	235.116	43.776	59.017
594	2.175	5.978	8.153	39.412	195.616	235.028	43.279	58.268
595	2.195	5.965	8.159	39.766	195.177	234.943	42.880	57.839
596	2.214	5.952	8.165	40.114	194.743	234.857	42.544	57.025
597	2.234	5.938	8.172	40.472	194.301	234.772	42.563	56.865
598	2.253	5.925	8.178	40.830	193.860	234.690	42.851	57.668
599	2.273	5.911	8.184	41.186	193.419	234.605	43.323	58.581
600	2.293	5.897	8.190	41.546	192.970	234.516	43.792	59.160
601	2.313	5.883	8.197	41.916	192.508	234.425	43.963	59.748
602	2.334	5.869	8.203	42.283	192.049	234.332	43.675	59.256
603	2.353	5.856	8.209	42.643	191.600	234.242	42.971	58.655
604	2.373	5.842	8.215	43.005	191.143	234.148	43.480	59.322
605	2.394	5.827	8.221	43.378	190.674	234.053	43.586	59.501
606	2.415	5.813	8.227	43.753	190.203	233.956	43.670	59.692
607	2.435	5.798	8.234	44.128	189.729	233.858	42.818	58.280
608	2.456	5.784	8.240	44.497	189.267	233.764	42.204	57.002
609	2.476	5.770	8.246	44.861	188.813	233.674	41.416	55.897
610	2.495	5.757	8.252	45.217	188.370	233.588	40.801	54.792
611	2.515	5.744	8.258	45.565	187.939	233.504	41.190	55.726
612	2.534	5.730	8.264	45.917	187.501	233.418	42.505	58.053
613	2.554	5.716	8.271	46.286	187.036	233.322	44.049	60.672
614	2.575	5.701	8.277	46.663	186.556	233.219	45.110	62.377
615	2.596	5.687	8.283	47.039	186.077	233.116	44.421	61.311
616	2.617	5.672	8.289	47.424	185.588	233.012	43.096	59.381
617	2.637	5.658	8.295	47.786	185.127	232.913	41.737	57.209
618	2.656	5.644	8.301	48.133	184.688	232.821	40.376	55.005
619	2.676	5.631	8.307	48.483	184.250	232.732	39.638	53.735
620	2.695	5.618	8.312	48.828	183.817	232.645	39.403	53.354
621	2.714	5.605	8.318	49.172	183.387	232.559	40.646	55.503
622	2.734	5.591	8.324	49.531	182.937	232.467	43.058	59.364
623	2.754	5.577	8.330	49.897	182.471	232.369	44.563	61.908
624	2.775	5.562	8.336	50.274	181.989	232.264	44.691	62.221
625	2.795	5.547	8.342	50.652	181.504	232.156	43.614	60.956
626	2.816	5.533	8.348	51.019	181.031	232.050	42.045	58.598
627	2.835	5.519	8.354	51.374	180.576	231.949	41.477	57.640
628	2.855	5.505	8.360	51.732	180.117	231.849	41.149	57.064
629	2.874	5.491	8.365	52.068	179.687	231.755	41.541	57.393
630	2.893	5.478	8.371	52.423	179.235	231.658	41.868	57.925
631	2.913	5.464	8.376	52.775	178.786	231.561	41.957	58.261
632	2.932	5.450	8.382	53.134	178.326	231.460	42.608	59.062
633	2.952	5.436	8.388	53.484	177.878	231.363	42.482	59.361
634	2.972	5.421	8.394	53.857	177.397	231.255	42.532	59.788
635	2.993	5.407	8.400	54.226	176.920	231.147	42.639	60.186
636	3.013	5.392	8.405	54.602	176.431	231.033	42.563	60.070
637	3.034	5.377	8.411	54.969	175.954	230.922	42.330	60.177
638	3.054	5.362	8.417	55.346	175.459	230.805	41.927	59.884
639	3.075	5.347	8.422	55.723	174.963	230.685	41.269	59.295
640	3.096	5.332	8.428	56.092	174.475	230.566	41.143	58.986
641	3.116	5.318	8.433	56.454	173.995	230.449	40.961	58.956
642	3.136	5.303	8.438	56.815	173.515	230.331	41.515	59.819
643	3.156	5.288	8.444	57.182	173.027	230.209	41.459	60.222
644	3.176	5.273	8.449	57.552	172.532	230.084	41.341	60.791
645	3.197	5.257	8.454	57.921	172.030	229.952	40.865	60.659
646	3.217	5.242	8.459	58.290	171.526	229.817	40.084	59.413
647	3.236	5.227	8.464	58.641	171.047	229.688	39.347	59.040
648	3.255	5.213	8.468	58.984	170.573	229.557	38.752	58.330
649	3.274	5.199	8.472	59.319	170.108	229.427	38.676	58.834
650	3.292	5.185	8.476	59.643	169.652	229.296	39.053	59.666
651	3.310	5.171	8.480	59.974	169.186	229.160	39.177	60.976
652	3.329	5.155	8.484	60.328	168.679	229.006	39.034	61.626
653	3.348	5.140	8.488	60.668	168.184	228.852	38.223	60.881
654	3.367	5.124	8.492	61.012	167.679	228.691	37.180	60.439
655	3.385	5.109	8.495	61.342	167.185	228.527	36.312	59.754
656	3.402	5.095	8.497	61.649	166.719	228.368	35.552	58.819
657	3.417	5.083	8.500	61.913	166.315	228.228	35.378	59.675
658	3.432	5.070	8.502	62.189	165.887	228.075	35.040	60.214
659	3.449	5.055	8.504	62.494	165.403	227.897	34.592	60.644
660	3.466	5.040	8.506	62.798	164.911	227.710	34.192	61.719
661	3.482	5.024	8.507	63.102	164.406	227.508	33.079	60.910
662	3.499	5.009	8.508	63.393	163.911	227.304	31.793	60.088
663	3.514	4.994	8.508	63.672	163.425	227.097	30.710	59.714
664	3.529	4.980	8.509	63.941	162.942	226.883	29.847	59.039
665	3.543	4.965	8.508	64.205	162.460	226.665	28.996	59.054
666	3.558	4.950	8.508	64.469	161.964	226.434	28.526	60.038
667	3.572	4.934	8.507	64.729	161.461	226.190	27.889	61.006
668	3.586	4.919	8.505	64.981	160.952	225.933	27.003	61.450
669	3.600	4.903	8.503	65.226	160.438	225.664	25.823	61.582
670	3.613	4.887	8.500	65.463	159.915	225.378	24.583	61.247
671	3.625	4.871	8.497	65.688	159.398	225.086	23.095	59.610
672	3.637	4.856	8.493	65.898	158.897	224.796	21.878	59.157
673	3.648	4.841	8.489	66.097	158.404	224.501	20.958	59.666
674	3.658	4.826	8.484	66.288	157.902	224.190	19.919	59.238
675	3.668	4.811	8.479	66.468	157.406	223.875	19.025	60.461
676	3.678	4.795	8.473	66.639	156.904	223.543	17.978	61.137
677	3.687	4.779	8.466	66.803	156.386	223.190	16.712	60.327
678	3.695	4.764	8.459	66.956	155.880	222.836	15.590	60.093
679	3.703	4.748	8.451	67.097	155.375	222.472	14.505	59.288
680	3.710	4.733	8.444	67.229	154.880	222.108	13.519	58.695
681	3.717	4.718	8.435	67.352	154.384	221.736	12.667	59.409
682	3.723	4.703	8.426	67.468	153.886	221.354	11.790	59.961
683	3.729	4.687	8.417	67.576	153.379	220.954	10.921	60.052
684	3.735	4.672	8.407	67.674	152.879	220.553	10.036	60.070
685	3.740	4.657	8.397	67.765	152.381	220.145	9.201	59.942
686	3.744	4.642	8.386	67.849	151.879	219.728	8.414	58.592
687	3.749	4.627	8.376	67.924	151.401	219.324	7.664	57.742
688	3.751	4.617	8.368	67.972	151.059	219.031	7.106	58.929
689	3.754	4.604	8.358	68.025	150.656	218.681	6.530	58.590
690	3.757	4.592	8.349	68.073	150.250	218.323	5.992	58.786
691	3.759	4.579	8.338	68.121	149.826	217.947	5.501	60.190
692	3.762	4.565	8.327	68.165	149.371	217.536	5.038	59.930
693	3.764	4.551	8.315	68.207	148.904	217.112	4.608	59.694
694	3.766	4.537	8.303	68.245	148.444	216.690	4.198	59.370
695	3.768	4.523	8.291	68.281	147.990	216.271	3.846	59.808
696	3.770	4.509	8.279	68.314	147.524	215.837	3.511	60.255
697	3.772	4.494	8.266	68.344	147.052	215.396	3.188	60.849
698	3.773	4.479	8.252	68.373	146.547	214.920	2.895	61.380
699	3.775	4.463	8.238	68.399	146.045	214.444	2.616	60.821
700	3.776	4.448	8.225	68.421	145.559	213.980	2.368	60.395
701	3.777	4.434	8.211	68.442	145.080	213.523	2.167	60.458
702	3.778	4.419	8.198	68.461	144.604	213.065	1.989	60.278
703	3.779	4.405	8.184	68.478	144.129	212.607	1.812	60.892
704	3.780	4.390	8.170	68.494	143.645	212.139	1.654	62.144
705	3.781	4.374	8.155	68.508	143.136	211.644	1.501	61.851
706	3.782	4.359	8.140	68.521	142.625	211.146	1.346	60.687
707	3.782	4.344	8.126	68.533	142.127	210.660	1.220	60.670
708	3.783	4.328	8.111	68.544	141.628	210.172	1.120	60.609
709	3.783	4.313	8.097	68.554	141.134	209.688	1.033	59.943
710	3.784	4.298	8.082	68.563	140.640	209.203	0.936	59.751
711	3.784	4.283	8.067	68.571	140.142	208.713	0.859	62.706
712	3.785	4.267	8.052	68.579	139.624	208.203	0.788	62.764
713	3.785	4.251	8.036	68.586	139.104	207.690	0.717	61.894
714	3.786	4.236	8.021	68.592	138.600	207.192	0.648	61.130
715	3.786	4.220	8.006	68.597	138.097	206.695	0.590	60.758
716	3.786	4.206	7.992	68.603	137.614	206.217	0.546	62.115
717	3.786	4.190	7.977	68.608	137.115	205.723	0.507	63.319
718	3.787	4.177	7.963	68.612	136.667	205.279	0.465	63.965
719	3.787	4.164	7.951	68.616	136.245	204.861	0.426	64.469
720	3.787	4.152	7.939	68.618	135.864	204.482	0.388	63.744
721	3.787	4.140	7.927	68.621	135.460	204.081	0.351	63.459
722	3.787	4.126	7.914	68.624	135.018	203.642	0.323	62.843
723	3.787	4.111	7.898	68.626	134.518	203.144	0.295	63.009
724	3.788	4.097	7.884	68.629	134.055	202.684	0.274	64.331
725	3.788	4.084	7.871	68.632	133.617	202.248	0.253	65.751
726	3.788	4.070	7.858	68.633	133.176	201.809	0.233	66.219
727	3.788	4.056	7.844	68.634	132.713	201.347	0.214	66.104
728	3.788	4.042	7.830	68.636	132.248	200.884	0.193	65.227
729	3.788	4.028	7.816	68.637	131.807	200.444	0.177	64.770
730	3.788	4.015	7.803	68.638	131.366	200.004	0.163	64.744
731	3.788	4.000	7.788	68.639	130.890	199.530	0.151	65.542
732	3.788	3.986	7.774	68.641	130.434	199.074	0.140	66.789
733	3.788	3.971	7.759	68.642	129.932	198.574	0.128	67.071
734	3.788	3.955	7.743	68.643	129.409	198.052	0.117	67.194
735	3.788	3.938	7.727	68.645	128.865	197.510	0.107	66.060
736	3.788	3.922	7.711	68.646	128.338	196.984	0.097	65.528
737	3.789	3.906	7.695	68.647	127.820	196.467	0.090	65.601
738	3.789	3.890	7.679	68.649	127.300	195.949	0.082	65.773
739	3.789	3.874	7.663	68.650	126.769	195.419	0.077	67.316
740	3.789	3.858	7.647	68.650	126.240	194.890	0.071	67.864
741	3.789	3.841	7.630	68.650	125.695	194.345	0.065	67.293
742	3.789	3.825	7.614	68.650	125.155	193.805	0.059	67.213
743	3.789	3.808	7.597	68.650	124.614	193.264	0.054	66.174
744	3.789	3.792	7.580	68.650	124.072	192.722	0.050	65.674
745	3.789	3.775	7.564	68.650	123.528	192.178	0.046	66.721
746	3.789	3.758	7.547	68.650	122.974	191.624	0.042	66.988
747	3.789	3.741	7.530	68.650	122.418	191.068	0.039	67.401
748	3.789	3.724	7.513	68.650	121.858	190.508	0.036	67.827
749	3.789	3.707	7.496	68.650	121.298	189.948	0.033	67.510
750	3.789	3.690	7.479	68.650	120.740	189.390	0.030	66.999
751	3.789	3.673	7.462	68.650	120.185	188.835	0.028	66.520
752	3.789	3.656	7.445	68.650	119.639	188.289	0.026	66.637
753	3.789	3.639	7.428	68.650	119.085	187.735	0.024	67.243
754	3.789	3.622	7.411	68.650	118.531	187.181	0.022	67.541
755	3.789	3.605	7.394	68.650	117.965	186.615	0.020	67.430
756	3.789	3.588	7.377	68.650	117.403	186.053	0.019	67.431
757	3.789	3.571	7.360	68.650	116.845	185.495	0.017	66.188
758	3.789	3.554	7.343	68.650	116.297	184.947	0.016	65.491
759	3.789	3.538	7.326	68.650	115.754	184.404	0.014	65.716
760	3.789	3.521	7.310	68.650	115.223	183.873	0.013	65.545
761	3.789	3.518	7.306	68.650	115.103	183.753	0.012	65.562
762	3.789	3.516	7.304	68.650	115.033	183.683	0.007	66.096
763	3.789	3.506	7.295	68.650	114.721	183.371	0.009	65.926
764	3.789	3.501	7.289	68.650	114.548	183.198	0.010	65.571
765	3.789	3.493	7.282	68.650	114.303	182.953	0.007	65.128
766	3.789	3.484	7.272	68.650	113.994	182.644	0.005	64.724
767	3.789	3.473	7.261	68.650	113.631	182.281	0.006	64.669
768	3.789	3.459	7.248	68.650	113.197	181.847	0.004	64.741
769	3.789	3.444	7.233	68.650	112.702	181.352	0.004	64.742
770	3.789	3.429	7.218	68.650	112.200	180.850	0.005	64.882
771	3.789	3.413	7.202	68.650	111.683	180.333	0.005	64.524
772	3.789	3.397	7.186	68.650	111.163	179.813	0.003	64.446
773	3.789	3.381	7.170	68.650	110.639	179.289	0.005	63.996
774	3.789	3.365	7.154	68.650	110.117	178.767	0.004	63.459
775	3.789	3.349	7.138	68.650	109.598	178.248	0.004	63.388
776	3.789	3.334	7.122	68.650	109.080	177.730	0.004	63.359
777	3.789	3.318	7.106	68.650	108.561	177.211	0.002	63.376
778	3.789	3.302	7.091	68.650	108.042	176.692	0.003	63.006
779	3.789	3.286	7.075	68.650	107.524	176.174	0.003	62.519
780	3.789	3.270	7.059	68.650	107.011	175.661	0.003	61.780
781	3.789	3.255	7.044	68.650	106.507	175.157	0.003	61.390
782	3.789	3.240	7.028	68.650	106.006	174.656	0.003	61.413
783	3.789	3.224	7.013	68.650	105.504	174.154	0.002	61.691
784	3.789	3.209	6.998	68.650	104.999	173.649	0.002	61.968
785	3.789	3.194	6.982	68.650	104.496	173.146	0.002	62.053
786	3.789	3.178	6.967	68.650	103.992	172.642	0.002	61.592
787	3.789	3.163	6.951	68.650	103.486	172.136	0.002	61.180
788	3.789	3.148	6.936	68.650	102.992	171.642	0.002	60.540
789	3.789	3.133	6.921	68.650	102.507	171.157	0.002	60.202
790	3.789	3.118	6.907	68.650	102.025	170.675	0.002	60.270
791	3.789	3.104	6.893	68.650	101.560	170.210	0.001	60.360
792	3.789	3.089	6.878	68.650	101.084	169.734	0.001	60.454
793	3.789	3.075	6.864	68.650	100.612	169.262	0.001	60.202
794	3.789	3.061	6.849	68.650	100.145	168.795	0.001	59.522
795	3.789	3.046	6.835	68.650	99.679	168.329	0.001	59.135
796	3.789	3.032	6.821	68.650	99.215	167.865	0.001	58.761
797	3.789	3.018	6.807	68.650	98.763	167.413	0.001	58.606
798	3.789	3.004	6.793	68.650	98.303	166.953	0.001	58.845
799	3.789	2.990	6.779	68.650	97.835	166.485	0.001	59.255
800	3.789	2.976	6.765	68.650	97.373	166.023	0.001	59.255
801	3.789	2.962	6.751	68.650	96.915	165.565	0.001	58.961
802	3.789	2.948	6.736	68.650	96.453	165.103	0.000	58.505
803	3.789	2.934	6.722	68.650	95.995	164.645	0.001	58.162
804	3.789	2.920	6.709	68.650	95.547	164.197	0.001	58.078
805	3.789	2.906	6.695	68.650	95.093	163.743	0.001	58.558
806	3.789	2.892	6.681	68.650	94.645	163.295	0.001	58.954
807	3.789	2.878	6.667	68.650	94.176	162.826	0.000	58.761
808	3.789	2.864	6.653	68.650	93.713	162.363	0.000	58.669
809	3.789	2.850	6.639	68.650	93.251	161.901	0.001	58.326
810	3.789	2.836	6.625	68.650	92.801	161.451	0.001	57.864
811	3.789	2.822	6.611	68.650	92.354	161.004	0.001	57.935
812	3.789	2.809	6.598	68.650	91.907	160.557	0.000	58.182
813	3.789	2.795	6.584	68.650	91.469	160.119	0.000	58.651
814	3.789	2.782	6.571	68.650	91.035	159.685	0.000	59.041
815	3.789	2.770	6.559	68.650	90.643	159.293	0.000	58.850
816	3.789	2.758	6.547	68.650	90.254	158.904	0.000	58.769
817	3.789	2.747	6.536	68.650	89.892	158.542	0.000	57.989
818	3.789	2.736	6.525	68.650	89.526	158.176	0.000	57.732
819	3.789	2.725	6.514	68.650	89.174	157.824	0.000	58.176
820	3.789	2.713	6.502	68.650	88.783	157.433	0.000	58.274
821	3.789	2.702	6.491	68.650	88.410	157.060	0.000	58.271
822	3.789	2.689	6.477	68.650	87.979	156.629	0.000	58.299
823	3.789	2.676	6.465	68.650	87.567	156.217	0.000	58.033
824	3.789	2.667	6.456	68.650	87.275	155.925	0.000	57.862
825	3.789	2.655	6.444	68.650	86.872	155.522	0.000	58.201
826	3.789	2.642	6.431	68.650	86.451	155.101	0.000	58.147
827	3.789	2.630	6.418	68.650	86.045	154.695	0.000	58.351
828	3.789	2.617	6.405	68.650	85.615	154.265	0.000	59.117
829	3.789	2.605	6.394	68.650	85.238	153.888	0.000	59.468
830	3.789	2.592	6.381	68.650	84.824	153.474	0.000	59.328
831	3.789	2.580	6.369	68.650	84.416	153.066	0.000	59.255
832	3.789	2.567	6.356	68.650	84.004	152.654	0.000	58.519
833	3.789	2.555	6.344	68.650	83.609	152.259	0.000	58.566
834	3.789	2.542	6.331	68.650	83.186	151.836	0.000	59.032
835	3.789	2.530	6.318	68.650	82.769	151.419	0.000	59.118
836	3.789	2.516	6.305	68.650	82.321	150.971	0.000	59.463
837	3.789	2.502	6.291	68.650	81.884	150.534	0.000	59.211
838	3.789	2.489	6.277	68.650	81.431	150.081	0.000	58.985
839	3.789	2.475	6.264	68.650	80.984	149.634	0.000	59.111
840	3.789	2.461	6.250	68.650	80.535	149.185	0.000	59.017
841	3.789	2.447	6.236	68.650	80.079	148.729	0.000	59.161
842	3.789	2.433	6.222	68.650	79.624	148.274	0.000	59.590
843	3.789	2.420	6.208	68.650	79.171	147.821	0.000	59.919
844	3.789	2.405	6.194	68.650	78.710	147.360	0.000	60.379
845	3.789	2.392	6.180	68.650	78.255	146.905	0.000	60.247
846	3.789	2.377	6.166	68.650	77.786	146.436	0.000	60.168
847	3.789	2.363	6.152	68.650	77.316	145.966	0.000	59.972
848	3.789	2.349	6.138	68.650	76.861	145.511	0.000	59.972
849	3.789	2.335	6.124	68.650	76.404	145.054	0.000	60.074
850	3.789	2.321	6.110	68.650	75.949	144.599	0.000	60.481
851	3.789	2.308	6.097	68.650	75.532	144.182	0.000	60.873
852	3.789	2.294	6.083	68.650	75.074	143.724	0.000	60.754
853	3.789	2.280	6.069	68.650	74.620	143.270	0.000	60.360
854	3.789	2.267	6.055	68.650	74.169	142.819	0.000	60.382
855	3.789	2.255	6.043	68.650	73.771	142.421	0.000	60.414
856	3.789	2.241	6.030	68.650	73.343	141.993	0.000	60.969
857	3.789	2.227	6.016	68.650	72.883	141.533	0.000	61.242
858	3.789	2.213	6.002	68.650	72.411	141.061	0.000	61.645
859	3.789	2.198	5.987	68.650	71.935	140.585	0.000	61.469
860	3.789	2.184	5.973	68.650	71.460	140.110	0.000	61.245
861	3.789	2.169	5.958	68.650	70.987	139.637	0.000	61.480
862	3.789	2.155	5.944	68.650	70.514	139.164	0.000	61.513
863	3.789	2.140	5.929	68.650	70.035	138.685	0.000	61.458
864	3.789	2.126	5.914	68.650	69.554	138.204	0.000	61.724
865	3.789	2.111	5.900	68.650	69.081	137.731	0.000	61.483
866	3.789	2.097	5.886	68.650	68.616	137.266	0.000	61.289
867	3.789	2.084	5.873	68.650	68.206	136.856	0.000	61.699
868	3.789	2.071	5.860	68.650	67.762	136.412	0.000	61.652
869	3.789	2.057	5.845	68.650	67.295	135.945	0.000	61.526
870	3.789	2.043	5.831	68.650	66.834	135.484	0.000	62.187
871	3.789	2.028	5.817	68.650	66.359	135.009	0.000	62.126
872	3.789	2.014	5.802	68.650	65.890	134.540	0.000	61.875
873	3.789	1.999	5.788	68.650	65.417	134.067	0.000	62.280
874	3.789	1.985	5.773	68.650	64.944	133.594	0.000	62.252
875	3.789	1.971	5.759	68.650	64.479	133.129	0.000	62.140
876	3.789	1.957	5.745	68.650	64.021	132.671	0.000	62.080
877	3.789	1.942	5.731	68.650	63.550	132.200	0.000	61.958
878	3.789	1.928	5.716	68.650	63.078	131.728	0.000	62.108
879	3.789	1.913	5.702	68.650	62.605	131.255	0.000	62.064
880	3.789	1.899	5.688	68.650	62.141	130.791	0.000	61.944
881	3.789	1.885	5.674	68.650	61.676	130.326	0.000	62.106
882	3.789	1.871	5.660	68.650	61.224	129.874	0.000	62.071
883	3.789	1.857	5.646	68.650	60.760	129.410	0.000	62.069
884	3.789	1.843	5.631	68.650	60.298	128.948	0.000	62.156
885	3.789	1.829	5.617	68.650	59.831	128.481	0.000	61.994
886	3.789	1.814	5.603	68.650	59.360	128.010	0.000	62.145
887	3.789	1.800	5.589	68.650	58.906	127.556	0.000	62.224
888	3.789	1.786	5.575	68.650	58.449	127.099	0.000	62.305
889	3.789	1.772	5.561	68.650	57.985	126.635	0.000	62.397
890	3.789	1.758	5.546	68.650	57.514	126.164	0.000	62.512
891	3.789	1.743	5.532	68.650	57.047	125.697	0.000	62.301
892	3.789	1.729	5.518	68.650	56.579	125.229	0.000	62.527
893	3.789	1.715	5.504	68.650	56.118	124.768	0.000	62.963
894	3.789	1.701	5.490	68.650	55.671	124.321	0.000	63.393
895	3.789	1.688	5.477	68.650	55.231	123.881	0.000	63.518
896	3.789	1.675	5.464	68.650	54.809	123.459	0.000	63.656
897	3.789	1.663	5.452	68.650	54.412	123.062	0.000	63.807
898	3.789	1.652	5.441	68.650	54.063	122.713	0.000	63.729
899	3.789	1.641	5.429	68.650	53.688	122.338	0.000	63.598
900	3.789	1.632	5.421	68.650	53.401	122.051	0.000	63.091
901	3.789	1.620	5.409	68.650	53.015	121.665	0.000	63.128
902	3.789	1.611	5.399	68.650	52.703	121.353	0.000	63.346
903	3.789	1.600	5.389	68.650	52.354	121.004	0.000	63.351
904	3.789	1.589	5.378	68.650	51.993	120.643	0.000	63.366
905	3.789	1.576	5.364	68.650	51.552	120.202	0.000	63.074
906	3.789	1.563	5.351	68.650	51.127	119.777	0.000	62.738
907	3.789	1.550	5.339	68.650	50.725	119.375	0.000	63.144
908	3.789	1.540	5.329	68.650	50.391	119.041	0.000	63.235
909	3.789	1.530	5.318	68.650	50.048	118.698	0.000	63.484
910	3.789	1.518	5.307	68.650	49.676	118.326	0.000	64.020
911	3.789	1.508	5.297	68.650	49.343	117.993	0.000	64.187
912	3.789	1.497	5.286	68.650	48.986	117.636	0.000	64.093
913	3.789	1.486	5.274	68.650	48.617	117.267	0.000	63.941
914	3.789	1.476	5.264	68.650	48.282	116.932	0.000	63.396
915	3.789	1.465	5.254	68.650	47.950	116.600	0.000	63.379
916	3.789	1.454	5.243	68.650	47.590	116.240	0.000	63.611
917	3.789	1.445	5.234	68.650	47.282	115.932	0.000	63.915
918	3.789	1.433	5.222	68.650	46.891	115.541	0.000	63.847
919	3.789	1.423	5.212	68.650	46.573	115.223	0.000	63.555
920	3.789	1.411	5.200	68.650	46.178	114.828	0.000	63.401
921	3.789	1.399	5.188	68.650	45.780	114.430	0.000	63.393
922	3.789	1.386	5.175	68.650	45.364	114.014	0.000	62.964
923	3.789	1.375	5.164	68.650	44.992	113.642	0.000	63.040
924	3.789	1.363	5.152	68.650	44.596	113.246	0.000	63.502
925	3.789	1.351	5.140	68.650	44.208	112.858	0.000	63.357
926	3.789	1.339	5.128	68.650	43.827	112.477	0.000	63.297
927	3.789	1.328	5.117	68.650	43.450	112.100	0.000	63.011
928	3.789	1.315	5.104	68.650	43.030	111.680	0.000	62.792
929	3.789	1.305	5.094	68.650	42.715	111.365	0.000	62.696
930	3.789	1.296	5.085	68.650	42.420	111.070	0.000	62.376
931	3.789	1.289	5.078	68.650	42.190	110.840	0.000	62.572
932	3.789	1.283	5.071	68.650	41.971	110.621	0.000	62.415
933	3.789	1.278	5.066	68.650	41.810	110.460	0.000	62.183
934	3.789	1.274	5.062	68.650	41.677	110.327	0.000	62.130
935	3.789	1.271	5.060	68.650	41.599	110.249	0.000	61.823
936	3.789	1.267	5.056	68.650	41.466	110.116	0.000	61.486
937	3.789	1.265	5.053	68.650	41.380	110.030	0.000	61.481
938	3.789	1.262	5.051	68.650	41.293	109.943	0.000	61.320
939	3.789	1.259	5.047	68.650	41.186	109.836	0.000	61.597
940	3.789	1.252	5.041	68.650	40.974	109.624	0.000	61.852
941	3.789	1.245	5.033	68.650	40.722	109.372	0.000	61.645
942	3.789	1.238	5.027	68.650	40.524	109.174	0.000	61.501
943	3.789	1.232	5.021	68.650	40.308	108.958	0.000	61.199
944	3.789	1.227	5.016	68.650	40.160	108.810	0.000	60.851
945	3.789	1.223	5.011	68.650	40.009	108.659	0.000	60.924
946	3.789	1.217	5.005	68.650	39.814	108.464	0.000	60.811
947	3.789	1.214	5.002	68.650	39.711	108.361	0.000	60.763
948	3.789	1.208	4.996	68.650	39.515	108.165	0.000	60.704
949	3.789	1.203	4.992	68.650	39.369	108.019	0.000	60.392
950	3.789	1.195	4.984	68.650	39.109	107.759	0.000	60.273
951	3.789	1.193	4.982	68.650	39.031	107.681	0.000	60.211
952	3.789	1.185	4.974	68.650	38.776	107.426	0.000	60.052
953	3.789	1.181	4.969	68.650	38.634	107.284	0.000	60.256
954	3.789	1.175	4.964	68.650	38.452	107.102	0.000	60.514
955	3.789	1.168	4.957	68.650	38.227	106.877	0.000	60.500
956	3.789	1.163	4.951	68.650	38.045	106.695	0.000	60.525
957	3.789	1.157	4.946	68.650	37.870	106.520	0.000	60.169
958	3.789	1.153	4.942	68.650	37.725	106.375	0.000	59.993
959	3.789	1.145	4.934	68.650	37.481	106.131	0.000	59.846
960	3.789	1.139	4.928	68.650	37.283	105.933	0.000	59.654
961	3.789	1.133	4.921	68.650	37.062	105.712	0.000	59.644
962	3.789	1.125	4.914	68.650	36.818	105.468	0.000	59.666
963	3.789	1.118	4.907	68.650	36.584	105.234	0.000	59.666
964	3.789	1.110	4.899	68.650	36.317	104.967	0.000	59.731
965	3.789	1.102	4.891	68.650	36.073	104.723	0.000	59.512
966	3.789	1.094	4.883	68.650	35.807	104.457	0.000	59.458
967	3.789	1.086	4.875	68.650	35.540	104.190	0.000	59.570
968	3.789	1.078	4.867	68.650	35.274	103.924	0.000	59.444
969	3.789	1.068	4.856	68.650	34.930	103.580	0.000	59.770
970	3.789	1.056	4.845	68.650	34.565	103.215	0.000	59.697
971	3.789	1.046	4.835	68.650	34.227	102.877	0.000	59.352
972	3.789	1.034	4.823	68.650	33.849	102.499	0.000	58.947
973	3.789	1.023	4.812	68.650	33.488	102.138	0.000	58.633
974	3.789	1.014	4.802	68.650	33.170	101.820	0.000	58.639
975	3.789	1.004	4.793	68.650	32.867	101.517	0.000	58.510
976	3.789	0.995	4.784	68.650	32.558	101.208	0.000	58.505
977	3.789	0.986	4.775	68.650	32.258	100.908	0.000	58.627
978	3.789	0.976	4.764	68.650	31.921	100.571	0.000	58.658
979	3.789	0.966	4.754	68.650	31.596	100.246	0.000	58.348
980	3.789	0.955	4.744	68.650	31.262	99.912	0.000	58.517
981	3.789	0.946	4.734	68.650	30.943	99.593	0.000	58.485
982	3.789	0.934	4.723	68.650	30.568	99.218	0.000	58.195
983	3.789	0.923	4.712	68.650	30.205	98.855	0.000	58.241
984	3.789	0.912	4.701	68.650	29.853	98.503	0.000	58.014
985	3.789	0.901	4.689	68.650	29.467	98.117	0.000	57.844
986	3.789	0.890	4.678	68.650	29.107	97.757	0.000	57.523
987	3.789	0.878	4.666	68.650	28.716	97.366	0.000	57.256
988	3.789	0.866	4.655	68.650	28.332	96.982	0.000	56.889
989	3.789	0.854	4.643	68.650	27.953	96.603	0.001	56.717
990	3.789	0.843	4.631	68.650	27.568	96.218	0.002	56.586
991	3.789	0.831	4.620	68.650	27.191	95.841	0.001	56.440
992	3.789	0.819	4.608	68.650	26.805	95.455	0.000	56.451
993	3.789	0.807	4.596	68.650	26.418	95.068	0.000	56.454
994	3.789	0.796	4.584	68.650	26.039	94.689	0.002	56.324
995	3.789	0.784	4.573	68.650	25.651	94.301	0.000	56.256
996	3.789	0.772	4.561	68.650	25.265	93.915	0.000	56.249
997	3.789	0.760	4.549	68.650	24.880	93.530	0.000	55.971
998	3.789	0.749	4.537	68.650	24.501	93.151	0.000	55.569
999	3.789	0.737	4.526	68.650	24.124	92.774	0.000	55.360
1000	3.789	0.726	4.514	68.650	23.748	92.398	0.000	54.958
1001	3.789	0.714	4.503	68.650	23.377	92.027	0.000	54.522
1002	3.789	0.703	4.492	68.650	23.003	91.653	0.000	54.138
1003	3.789	0.692	4.481	68.650	22.640	91.290	0.000	53.854
1004	3.789	0.681	4.469	68.650	22.276	90.926	0.000	53.716
1005	3.789	0.670	4.459	68.650	21.917	90.567	0.000	53.671
1006	3.789	0.659	4.448	68.650	21.579	90.229	0.000	53.536
1007	3.789	0.649	4.437	68.650	21.227	89.877	0.000	53.541
1008	3.789	0.638	4.426	68.650	20.866	89.516	0.000	53.232
1009	3.789	0.627	4.415	68.650	20.507	89.157	0.000	53.148
1010	3.789	0.616	4.405	68.650	20.152	88.802	0.000	52.998
1011	3.789	0.605	4.394	68.650	19.798	88.448	0.000	52.821
1012	3.789	0.594	4.383	68.650	19.444	88.094	0.000	52.444
1013	3.789	0.583	4.372	68.650	19.092	87.742	0.000	52.174
1014	3.789	0.573	4.362	68.650	18.743	87.393	0.000	51.794
1015	3.789	0.562	4.351	68.650	18.396	87.046	0.000	51.308
1016	3.789	0.552	4.341	68.650	18.057	86.707	0.000	51.007
1017	3.789	0.541	4.330	68.650	17.717	86.367	0.000	50.546
1018	3.789	0.531	4.320	68.650	17.386	86.036	0.000	50.094
1019	3.789	0.521	4.310	68.650	17.050	85.700	0.000	49.558
1020	3.789	0.511	4.300	68.650	16.730	85.380	0.000	49.296
1021	3.789	0.501	4.290	68.650	16.407	85.057	0.000	49.001
1022	3.789	0.492	4.280	68.650	16.083	84.733	0.000	48.624
1023	3.789	0.482	4.271	68.650	15.768	84.418	0.000	48.207
1024	3.789	0.472	4.261	68.650	15.454	84.104	0.000	47.917
1025	3.789	0.463	4.251	68.650	15.141	83.791	0.000	47.483
1026	3.789	0.453	4.242	68.650	14.829	83.479	0.000	46.991
1027	3.789	0.444	4.232	68.650	14.520	83.170	0.000	46.594
1028	3.789	0.434	4.223	68.650	14.214	82.864	0.000	46.082
1029	3.789	0.425	4.214	68.650	13.912	82.562	0.000	45.667
1030	3.789	0.416	4.205	68.650	13.615	82.265	0.000	45.483
1031	3.789	0.407	4.196	68.650	13.317	81.967	0.000	45.366
1032	3.789	0.398	4.187	68.650	13.021	81.671	0.000	45.413
1033	3.789	0.389	4.178	68.650	12.725	81.375	0.000	45.318
1034	3.789	0.380	4.169	68.650	12.433	81.083	0.000	45.217
1035	3.789	0.371	4.160	68.650	12.139	80.789	0.000	44.745
1036	3.789	0.362	4.151	68.650	11.849	80.499	0.000	43.961
1037	3.789	0.353	4.142	68.650	11.563	80.213	0.000	43.242
1038	3.789	0.345	4.134	68.650	11.284	79.934	0.000	42.674
1039	3.789	0.336	4.125	68.650	11.011	79.661	0.000	42.096
1040	3.789	0.328	4.117	68.650	10.738	79.388	0.000	41.928
1041	3.789	0.320	4.109	68.650	10.468	79.118	0.000	41.818
1042	3.789	0.312	4.100	68.650	10.198	78.848	0.000	41.582
1043	3.789	0.303	4.092	68.650	9.929	78.579	0.000	41.299
1044	3.789	0.295	4.084	68.650	9.665	78.315	0.000	40.924
1045	3.789	0.287	4.076	68.650	9.402	78.052	0.001	40.872
1046	3.789	0.279	4.068	68.650	9.140	77.790	0.001	40.686
1047	3.789	0.272	4.060	68.650	8.886	77.536	0.001	40.382
1048	3.789	0.264	4.052	68.650	8.630	77.280	0.000	39.961
1049	3.789	0.256	4.045	68.650	8.375	77.025	0.000	39.562
1050	3.789	0.248	4.037	68.650	8.123	76.773	0.001	39.008
1051	3.789	0.241	4.029	68.650	7.876	76.526	0.001	38.419
1052	3.789	0.233	4.022	68.650	7.631	76.281	0.000	37.934
1053	3.789	0.226	4.015	68.650	7.391	76.041	0.000	37.435
1054	3.789	0.219	4.007	68.650	7.155	75.805	0.001	37.152
1055	3.789	0.212	4.000	68.650	6.921	75.571	0.000	36.904
1056	3.789	0.204	3.993	68.650	6.689	75.339	0.000	36.892
1057	3.789	0.197	3.986	68.650	6.456	75.106	0.000	36.575
1058	3.789	0.190	3.979	68.650	6.226	74.876	0.000	36.124
1059	3.789	0.183	3.972	68.650	6.001	74.651	0.000	35.855
1060	3.789	0.177	3.965	68.650	5.784	74.434	0.000	35.575
1061	3.789	0.170	3.959	68.650	5.562	74.212	0.000	35.310
1062	3.789	0.163	3.952	68.650	5.348	73.998	0.000	34.995
1063	3.789	0.157	3.946	68.650	5.131	73.781	0.000	35.476
1064	3.789	0.150	3.939	68.650	4.914	73.564	0.000	36.530
1065	3.789	0.143	3.932	68.650	4.688	73.338	0.000	34.023
1066	3.789	0.137	3.926	68.650	4.477	73.127	0.000	30.987
1067	3.789	0.131	3.920	68.650	4.289	72.939	0.000	28.859
1068	3.789	0.126	3.914	68.650	4.112	72.762	0.000	27.586
1069	3.789	0.121	3.909	68.650	3.944	72.594	0.000	25.572
1070	3.789	0.116	3.905	68.650	3.796	72.446	0.000	25.589
1071	3.789	0.111	3.900	68.650	3.644	72.294	0.000	28.086
1072	3.789	0.106	3.895	68.650	3.473	72.123	0.000	29.753
1073	3.789	0.101	3.889	68.650	3.291	71.941	0.000	27.934
1074	3.789	0.095	3.884	68.650	3.124	71.774	0.000	26.910
1075	3.789	0.090	3.879	68.650	2.958	71.608	0.000	26.580
1076	3.789	0.086	3.874	68.650	2.802	71.452	0.000	26.624
1077	3.789	0.081	3.869	68.650	2.639	71.289	0.000	26.424
1078	3.789	0.076	3.865	68.650	2.481	71.131	0.000	25.833
1079	3.789	0.071	3.860	68.650	2.326	70.976	0.000	24.903
1080	3.789	0.066	3.855	68.650	2.175	70.825	0.000	23.805
1081	3.789	0.062	3.851	68.650	2.034	70.684	0.000	22.957
1082	3.789	0.058	3.847	68.650	1.901	70.551	0.000	22.514
1083	3.789	0.054	3.843	68.650	1.767	70.417	0.000	22.368
1084	3.789	0.050	3.839	68.650	1.633	70.283	0.000	21.990
1085	3.789	0.046	3.835	68.650	1.506	70.156	0.000	21.365
1086	3.789	0.042	3.831	68.650	1.378	70.028	0.000	20.970
1087	3.789	0.039	3.827	68.650	1.262	69.912	0.000	20.362
1088	3.789	0.035	3.824	68.650	1.146	69.796	0.000	19.773
1089	3.789	0.031	3.820	68.650	1.027	69.677	0.000	19.333
1090	3.789	0.028	3.817	68.650	0.915	69.565	0.001	18.923
1091	3.789	0.025	3.813	68.650	0.808	69.458	0.002	18.572
1092	3.789	0.021	3.810	68.650	0.698	69.348	0.002	18.059
1093	3.789	0.018	3.807	68.650	0.592	69.242	0.002	17.383
1094	3.789	0.015	3.804	68.650	0.503	69.153	0.003	16.695
1095	3.789	0.013	3.801	68.650	0.412	69.062	0.002	16.131
1096	3.789	0.010	3.799	68.650	0.327	68.977	0.000	15.940
1097	3.789	0.008	3.796	68.650	0.246	68.896	0.000	15.626
1098	3.789	0.005	3.793	68.650	0.154	68.804	0.000	15.098
1099	3.789	0.002	3.791	68.650	0.076	68.726	0.000	14.689
